PE UV       SUBTECH     SPECTRUM    ASCII       PEDS        4.00        
   -1
Sample876.Sample.asc
12/04/23
11:17:04.00
12/04/23
11:17:04.00
Analyst
ITO 4/1-A
250.000000
1
Lambda 950
950N6032301
PerkinElmer UV WinLab 5.1.5.0637 / 1.61.00 Lambda 900

0
0
3350/servo 860.8/2
0
0
UV/VIS
1
1
1
RBeamAtt,SBeamAtt,150mm sphere / downward view
0
0
0
0
Program
Program
3350/servo 860.8/2
3350/1 860.8/1
3350/1 860.8/1
0
1
 
 
 
0
 
860.8
319.2
860.8
Front
100
 
S:100 R:100
 
0
0
0
 
0
 
 
 
0
 
 
0
0
0
0
0
 
 
 
 
0
0
#HDR
-1
-1
#GR
nm
%T
1.0
0.0
2500.000000
-1.000000
2251
8
91.409160
-0.002689
#DATA
2500.000000	80.717156
2499.000000	80.538930
2498.000000	81.139237
2497.000000	80.102425
2496.000000	80.243606
2495.000000	80.781857
2494.000000	80.320642
2493.000000	80.678682
2492.000000	80.490073
2491.000000	80.539131
2490.000000	80.892904
2489.000000	80.506241
2488.000000	79.877331
2487.000000	80.891063
2486.000000	79.878520
2485.000000	81.223735
2484.000000	81.020453
2483.000000	80.390288
2482.000000	80.789606
2481.000000	80.728393
2480.000000	80.046583
2479.000000	81.203674
2478.000000	80.548145
2477.000000	80.850456
2476.000000	81.227290
2475.000000	80.523561
2474.000000	80.475900
2473.000000	81.115532
2472.000000	81.091027
2471.000000	81.105895
2470.000000	81.301375
2469.000000	81.724485
2468.000000	80.689632
2467.000000	81.127876
2466.000000	81.204260
2465.000000	81.186895
2464.000000	81.436999
2463.000000	81.007009
2462.000000	81.217832
2461.000000	81.628019
2460.000000	80.964481
2459.000000	81.412924
2458.000000	81.411140
2457.000000	81.013578
2456.000000	80.848522
2455.000000	81.330705
2454.000000	81.252198
2453.000000	81.985140
2452.000000	81.581427
2451.000000	81.858641
2450.000000	81.312632
2449.000000	81.486302
2448.000000	81.368825
2447.000000	81.379910
2446.000000	81.587216
2445.000000	81.739923
2444.000000	81.700244
2443.000000	81.758383
2442.000000	81.899515
2441.000000	82.065990
2440.000000	81.032605
2439.000000	81.221875
2438.000000	81.338773
2437.000000	81.736253
2436.000000	81.226478
2435.000000	81.694219
2434.000000	81.281398
2433.000000	81.679981
2432.000000	81.734360
2431.000000	82.383383
2430.000000	81.940638
2429.000000	82.087432
2428.000000	82.043467
2427.000000	82.273432
2426.000000	82.134413
2425.000000	82.181441
2424.000000	81.684653
2423.000000	81.546596
2422.000000	81.479949
2421.000000	81.658335
2420.000000	82.001806
2419.000000	81.653190
2418.000000	81.473556
2417.000000	81.700596
2416.000000	81.923740
2415.000000	81.712290
2414.000000	82.006940
2413.000000	81.728601
2412.000000	81.459621
2411.000000	81.791347
2410.000000	82.064500
2409.000000	82.403934
2408.000000	82.018913
2407.000000	81.815653
2406.000000	82.398816
2405.000000	82.262827
2404.000000	81.858625
2403.000000	82.337048
2402.000000	82.520891
2401.000000	82.402304
2400.000000	82.203409
2399.000000	82.238177
2398.000000	82.876108
2397.000000	82.962824
2396.000000	82.758206
2395.000000	82.901967
2394.000000	82.765722
2393.000000	82.603668
2392.000000	82.537655
2391.000000	82.544337
2390.000000	82.458918
2389.000000	82.457905
2388.000000	82.420596
2387.000000	82.726460
2386.000000	82.850172
2385.000000	82.800326
2384.000000	82.797569
2383.000000	82.645949
2382.000000	82.700218
2381.000000	82.648596
2380.000000	82.568047
2379.000000	82.770855
2378.000000	82.971340
2377.000000	83.142175
2376.000000	83.152238
2375.000000	82.892342
2374.000000	82.521024
2373.000000	82.650606
2372.000000	83.137641
2371.000000	83.346484
2370.000000	82.890770
2369.000000	82.675746
2368.000000	82.915269
2367.000000	83.064614
2366.000000	83.190866
2365.000000	83.154231
2364.000000	82.970582
2363.000000	82.756030
2362.000000	83.099054
2361.000000	83.521884
2360.000000	83.518108
2359.000000	83.392342
2358.000000	83.224153
2357.000000	82.996659
2356.000000	83.061952
2355.000000	83.084267
2354.000000	82.997962
2353.000000	82.852998
2352.000000	82.813447
2351.000000	82.990745
2350.000000	83.494269
2349.000000	83.476759
2348.000000	83.486480
2347.000000	83.667310
2346.000000	83.438438
2345.000000	83.290657
2344.000000	83.038706
2343.000000	82.981068
2342.000000	83.550816
2341.000000	83.575075
2340.000000	83.243579
2339.000000	83.506386
2338.000000	83.525791
2337.000000	83.446481
2336.000000	83.323173
2335.000000	83.431836
2334.000000	83.725229
2333.000000	83.731395
2332.000000	83.796939
2331.000000	83.562039
2330.000000	83.702586
2329.000000	83.565025
2328.000000	83.715565
2327.000000	83.763880
2326.000000	83.772208
2325.000000	83.669796
2324.000000	83.781820
2323.000000	83.633051
2322.000000	83.771464
2321.000000	83.998084
2320.000000	83.971751
2319.000000	84.140032
2318.000000	83.996592
2317.000000	84.049804
2316.000000	84.151777
2315.000000	84.014456
2314.000000	83.986227
2313.000000	84.029658
2312.000000	84.062191
2311.000000	83.922391
2310.000000	83.734871
2309.000000	83.881500
2308.000000	84.083504
2307.000000	84.165497
2306.000000	84.326736
2305.000000	84.166786
2304.000000	84.082993
2303.000000	84.046009
2302.000000	84.139581
2301.000000	84.101617
2300.000000	84.128018
2299.000000	84.315612
2298.000000	84.388932
2297.000000	83.987254
2296.000000	84.183006
2295.000000	84.340301
2294.000000	84.297941
2293.000000	84.078759
2292.000000	84.472577
2291.000000	84.295807
2290.000000	84.341094
2289.000000	84.265337
2288.000000	84.305691
2287.000000	84.442413
2286.000000	84.456208
2285.000000	84.266516
2284.000000	84.272292
2283.000000	84.340393
2282.000000	84.403473
2281.000000	84.530616
2280.000000	84.523676
2279.000000	84.474974
2278.000000	84.300820
2277.000000	84.519688
2276.000000	84.574423
2275.000000	84.764072
2274.000000	84.518921
2273.000000	84.379687
2272.000000	84.745740
2271.000000	84.945693
2270.000000	84.738545
2269.000000	84.943968
2268.000000	84.739418
2267.000000	84.645501
2266.000000	84.530869
2265.000000	84.741004
2264.000000	84.896011
2263.000000	84.763783
2262.000000	85.163796
2261.000000	85.077851
2260.000000	85.066487
2259.000000	84.759724
2258.000000	84.812066
2257.000000	84.908678
2256.000000	84.836529
2255.000000	84.795219
2254.000000	84.934655
2253.000000	84.795906
2252.000000	84.939593
2251.000000	85.076608
2250.000000	85.358015
2249.000000	85.046232
2248.000000	85.429929
2247.000000	84.775346
2246.000000	85.004230
2245.000000	84.855649
2244.000000	84.945727
2243.000000	85.024821
2242.000000	84.889452
2241.000000	84.898226
2240.000000	85.217691
2239.000000	85.137973
2238.000000	85.084386
2237.000000	85.075286
2236.000000	85.197723
2235.000000	85.210413
2234.000000	85.172865
2233.000000	85.089223
2232.000000	85.182207
2231.000000	85.363106
2230.000000	85.398664
2229.000000	84.989949
2228.000000	85.129256
2227.000000	85.207609
2226.000000	85.244694
2225.000000	85.256287
2224.000000	85.432568
2223.000000	85.395573
2222.000000	85.386981
2221.000000	85.287423
2220.000000	85.457451
2219.000000	85.427456
2218.000000	85.353521
2217.000000	85.293229
2216.000000	85.585040
2215.000000	85.361800
2214.000000	85.563452
2213.000000	85.498779
2212.000000	85.535106
2211.000000	85.442074
2210.000000	85.468219
2209.000000	85.487887
2208.000000	85.825331
2207.000000	85.653126
2206.000000	85.273131
2205.000000	85.748282
2204.000000	85.720708
2203.000000	85.673297
2202.000000	85.657548
2201.000000	85.705427
2200.000000	85.716250
2199.000000	85.913417
2198.000000	85.905635
2197.000000	85.909333
2196.000000	85.697531
2195.000000	85.775976
2194.000000	86.005607
2193.000000	85.908039
2192.000000	85.790919
2191.000000	85.896149
2190.000000	85.976067
2189.000000	86.031718
2188.000000	86.162966
2187.000000	85.916306
2186.000000	86.070848
2185.000000	86.133855
2184.000000	86.147215
2183.000000	86.120313
2182.000000	86.123612
2181.000000	86.114575
2180.000000	86.094240
2179.000000	86.160365
2178.000000	86.286899
2177.000000	86.264098
2176.000000	86.182391
2175.000000	86.135319
2174.000000	86.315338
2173.000000	86.170436
2172.000000	86.268225
2171.000000	86.483862
2170.000000	86.453831
2169.000000	86.339950
2168.000000	86.286921
2167.000000	86.406558
2166.000000	86.550346
2165.000000	86.550992
2164.000000	86.616788
2163.000000	86.667811
2162.000000	86.554873
2161.000000	86.732296
2160.000000	86.777401
2159.000000	86.692898
2158.000000	86.818599
2157.000000	86.675780
2156.000000	86.887373
2155.000000	86.895909
2154.000000	86.749995
2153.000000	86.913580
2152.000000	86.937077
2151.000000	86.870725
2150.000000	86.818680
2149.000000	86.849061
2148.000000	86.938722
2147.000000	86.964108
2146.000000	86.967879
2145.000000	86.867732
2144.000000	86.888566
2143.000000	87.123731
2142.000000	86.943280
2141.000000	86.792433
2140.000000	87.008089
2139.000000	87.112874
2138.000000	86.956674
2137.000000	87.021692
2136.000000	86.950622
2135.000000	86.964531
2134.000000	86.957741
2133.000000	87.081381
2132.000000	87.060000
2131.000000	87.003237
2130.000000	86.925331
2129.000000	87.004585
2128.000000	87.118633
2127.000000	87.078361
2126.000000	87.073266
2125.000000	87.070594
2124.000000	87.036953
2123.000000	87.177573
2122.000000	87.274176
2121.000000	87.230627
2120.000000	87.390089
2119.000000	87.360815
2118.000000	87.227444
2117.000000	87.234595
2116.000000	87.173482
2115.000000	87.266500
2114.000000	87.382484
2113.000000	87.332358
2112.000000	87.355535
2111.000000	87.347164
2110.000000	87.314057
2109.000000	87.355264
2108.000000	87.442924
2107.000000	87.461922
2106.000000	87.436201
2105.000000	87.493384
2104.000000	87.533528
2103.000000	87.486780
2102.000000	87.313782
2101.000000	87.311098
2100.000000	87.473472
2099.000000	87.590619
2098.000000	87.632937
2097.000000	87.602200
2096.000000	87.610989
2095.000000	87.601463
2094.000000	87.538673
2093.000000	87.515366
2092.000000	87.543285
2091.000000	87.455364
2090.000000	87.512363
2089.000000	87.603019
2088.000000	87.656716
2087.000000	87.651501
2086.000000	87.615590
2085.000000	87.723671
2084.000000	87.730636
2083.000000	87.665421
2082.000000	87.728902
2081.000000	87.653124
2080.000000	87.671303
2079.000000	87.810243
2078.000000	87.831543
2077.000000	87.746070
2076.000000	87.719451
2075.000000	87.775861
2074.000000	87.806012
2073.000000	87.754083
2072.000000	87.743763
2071.000000	87.797819
2070.000000	87.807648
2069.000000	87.858594
2068.000000	88.005409
2067.000000	88.064178
2066.000000	88.080741
2065.000000	87.943243
2064.000000	87.942803
2063.000000	88.112506
2062.000000	88.217320
2061.000000	88.168796
2060.000000	88.093798
2059.000000	88.135410
2058.000000	88.199969
2057.000000	88.189300
2056.000000	88.267026
2055.000000	88.266451
2054.000000	88.122899
2053.000000	88.213417
2052.000000	88.152901
2051.000000	88.096046
2050.000000	88.025704
2049.000000	88.164111
2048.000000	88.188656
2047.000000	88.109802
2046.000000	88.053504
2045.000000	88.157053
2044.000000	88.203555
2043.000000	88.267162
2042.000000	88.247687
2041.000000	88.238419
2040.000000	88.185142
2039.000000	88.213801
2038.000000	88.165052
2037.000000	88.278000
2036.000000	88.288997
2035.000000	88.192595
2034.000000	88.219704
2033.000000	88.347280
2032.000000	88.460540
2031.000000	88.387761
2030.000000	88.326536
2029.000000	88.246907
2028.000000	88.384705
2027.000000	88.367195
2026.000000	88.394005
2025.000000	88.380128
2024.000000	88.462321
2023.000000	88.477395
2022.000000	88.510105
2021.000000	88.415814
2020.000000	88.333892
2019.000000	88.392359
2018.000000	88.486328
2017.000000	88.448457
2016.000000	88.557121
2015.000000	88.562734
2014.000000	88.512005
2013.000000	88.579750
2012.000000	88.504296
2011.000000	88.508434
2010.000000	88.506102
2009.000000	88.552251
2008.000000	88.557472
2007.000000	88.632064
2006.000000	88.592178
2005.000000	88.624504
2004.000000	88.698227
2003.000000	88.621892
2002.000000	88.736559
2001.000000	88.657088
2000.000000	88.706428
1999.000000	88.672536
1998.000000	88.634396
1997.000000	88.734493
1996.000000	88.692166
1995.000000	88.721854
1994.000000	88.788509
1993.000000	88.761864
1992.000000	88.806654
1991.000000	88.771975
1990.000000	88.803212
1989.000000	88.819693
1988.000000	88.890193
1987.000000	88.818336
1986.000000	88.875354
1985.000000	88.792398
1984.000000	88.910301
1983.000000	88.893498
1982.000000	88.883665
1981.000000	88.861822
1980.000000	88.915396
1979.000000	88.940457
1978.000000	88.919106
1977.000000	88.934367
1976.000000	88.892703
1975.000000	88.942830
1974.000000	89.052131
1973.000000	88.959585
1972.000000	88.994709
1971.000000	88.972178
1970.000000	89.013077
1969.000000	89.012699
1968.000000	89.053357
1967.000000	89.073091
1966.000000	89.075323
1965.000000	89.073505
1964.000000	89.078922
1963.000000	89.072470
1962.000000	89.131202
1961.000000	89.128172
1960.000000	89.110448
1959.000000	89.081871
1958.000000	89.147086
1957.000000	89.185533
1956.000000	89.174766
1955.000000	89.212165
1954.000000	89.180108
1953.000000	89.196528
1952.000000	89.236857
1951.000000	89.253329
1950.000000	89.318047
1949.000000	89.208882
1948.000000	89.200218
1947.000000	89.246390
1946.000000	89.330632
1945.000000	89.295670
1944.000000	89.277758
1943.000000	89.321766
1942.000000	89.286253
1941.000000	89.370410
1940.000000	89.351328
1939.000000	89.298737
1938.000000	89.366908
1937.000000	89.376816
1936.000000	89.362456
1935.000000	89.390780
1934.000000	89.368930
1933.000000	89.394820
1932.000000	89.448069
1931.000000	89.355289
1930.000000	89.401521
1929.000000	89.440476
1928.000000	89.409024
1927.000000	89.424251
1926.000000	89.494470
1925.000000	89.419140
1924.000000	89.488246
1923.000000	89.484766
1922.000000	89.573552
1921.000000	89.538952
1920.000000	89.634205
1919.000000	89.546864
1918.000000	89.537645
1917.000000	89.531838
1916.000000	89.598670
1915.000000	89.608886
1914.000000	89.658387
1913.000000	89.655460
1912.000000	89.619657
1911.000000	89.648080
1910.000000	89.640637
1909.000000	89.636939
1908.000000	89.676295
1907.000000	89.723562
1906.000000	89.740628
1905.000000	89.745428
1904.000000	89.692729
1903.000000	89.713736
1902.000000	89.781535
1901.000000	89.787800
1900.000000	89.809344
1899.000000	89.816052
1898.000000	89.866347
1897.000000	89.834811
1896.000000	89.843367
1895.000000	89.870491
1894.000000	89.794453
1893.000000	89.778500
1892.000000	89.807463
1891.000000	89.897951
1890.000000	89.869165
1889.000000	89.960220
1888.000000	89.974692
1887.000000	89.890065
1886.000000	89.917243
1885.000000	89.992960
1884.000000	90.012432
1883.000000	89.997048
1882.000000	89.965074
1881.000000	89.940321
1880.000000	90.010808
1879.000000	89.997711
1878.000000	89.967934
1877.000000	89.959016
1876.000000	89.979132
1875.000000	89.995570
1874.000000	90.019612
1873.000000	90.012736
1872.000000	90.099643
1871.000000	90.201397
1870.000000	90.215670
1869.000000	90.164827
1868.000000	90.138694
1867.000000	90.121186
1866.000000	90.119218
1865.000000	90.152956
1864.000000	90.132555
1863.000000	90.114261
1862.000000	90.143484
1861.000000	90.180240
1860.000000	90.170998
1859.000000	90.195522
1858.000000	90.204543
1857.000000	90.204089
1856.000000	90.266795
1855.000000	90.319614
1854.000000	90.309829
1853.000000	90.312059
1852.000000	90.360920
1851.000000	90.360515
1850.000000	90.389429
1849.000000	90.434701
1848.000000	90.408510
1847.000000	90.377699
1846.000000	90.381259
1845.000000	90.333273
1844.000000	90.290747
1843.000000	90.369064
1842.000000	90.431233
1841.000000	90.428255
1840.000000	90.454845
1839.000000	90.482483
1838.000000	90.390444
1837.000000	90.294367
1836.000000	90.288655
1835.000000	90.363899
1834.000000	90.394774
1833.000000	90.398760
1832.000000	90.438474
1831.000000	90.452789
1830.000000	90.413641
1829.000000	90.395815
1828.000000	90.413887
1827.000000	90.435063
1826.000000	90.454660
1825.000000	90.450530
1824.000000	90.445323
1823.000000	90.441799
1822.000000	90.443225
1821.000000	90.449185
1820.000000	90.464222
1819.000000	90.472197
1818.000000	90.506678
1817.000000	90.544124
1816.000000	90.540007
1815.000000	90.515806
1814.000000	90.490376
1813.000000	90.517673
1812.000000	90.523808
1811.000000	90.494464
1810.000000	90.495610
1809.000000	90.545665
1808.000000	90.549531
1807.000000	90.552770
1806.000000	90.553612
1805.000000	90.588538
1804.000000	90.608953
1803.000000	90.598798
1802.000000	90.589413
1801.000000	90.609603
1800.000000	90.637169
1799.000000	90.641113
1798.000000	90.650883
1797.000000	90.614138
1796.000000	90.609248
1795.000000	90.610288
1794.000000	90.630912
1793.000000	90.651205
1792.000000	90.664206
1791.000000	90.668923
1790.000000	90.643936
1789.000000	90.637611
1788.000000	90.663386
1787.000000	90.664695
1786.000000	90.676750
1785.000000	90.712988
1784.000000	90.714812
1783.000000	90.725532
1782.000000	90.719497
1781.000000	90.729229
1780.000000	90.755110
1779.000000	90.715423
1778.000000	90.725640
1777.000000	90.745266
1776.000000	90.759941
1775.000000	90.758291
1774.000000	90.770599
1773.000000	90.728349
1772.000000	90.791166
1771.000000	90.777249
1770.000000	90.823541
1769.000000	90.810250
1768.000000	90.815874
1767.000000	90.818443
1766.000000	90.819726
1765.000000	90.800973
1764.000000	90.829286
1763.000000	90.837458
1762.000000	90.832962
1761.000000	90.851272
1760.000000	90.822370
1759.000000	90.821770
1758.000000	90.820162
1757.000000	90.855249
1756.000000	90.867174
1755.000000	90.888933
1754.000000	90.894130
1753.000000	90.912601
1752.000000	90.905718
1751.000000	90.891222
1750.000000	90.893059
1749.000000	90.932363
1748.000000	90.929509
1747.000000	90.920519
1746.000000	90.956157
1745.000000	90.954547
1744.000000	90.964213
1743.000000	90.892309
1742.000000	90.944800
1741.000000	90.952163
1740.000000	90.979573
1739.000000	90.971404
1738.000000	90.939263
1737.000000	90.935558
1736.000000	90.940115
1735.000000	91.015053
1734.000000	91.013163
1733.000000	90.989719
1732.000000	90.974810
1731.000000	91.000335
1730.000000	91.017543
1729.000000	91.025725
1728.000000	90.995994
1727.000000	91.024775
1726.000000	91.035458
1725.000000	91.011573
1724.000000	91.074322
1723.000000	91.034974
1722.000000	91.038758
1721.000000	91.018007
1720.000000	91.099142
1719.000000	91.074897
1718.000000	91.051682
1717.000000	91.098839
1716.000000	91.040951
1715.000000	91.046553
1714.000000	91.061933
1713.000000	91.098039
1712.000000	91.085945
1711.000000	91.104979
1710.000000	91.090045
1709.000000	91.146071
1708.000000	91.122586
1707.000000	91.076104
1706.000000	91.099317
1705.000000	91.130882
1704.000000	91.133168
1703.000000	91.148070
1702.000000	91.149710
1701.000000	91.132151
1700.000000	91.126265
1699.000000	91.155643
1698.000000	91.157020
1697.000000	91.145008
1696.000000	91.133989
1695.000000	91.134265
1694.000000	91.167469
1693.000000	91.155836
1692.000000	91.142055
1691.000000	91.164823
1690.000000	91.190553
1689.000000	91.150771
1688.000000	91.203776
1687.000000	91.186982
1686.000000	91.205268
1685.000000	91.233292
1684.000000	91.367415
1683.000000	91.395282
1682.000000	91.384027
1681.000000	91.378226
1680.000000	91.357136
1679.000000	91.370040
1678.000000	91.369345
1677.000000	91.392433
1676.000000	91.395575
1675.000000	91.344263
1674.000000	91.273931
1673.000000	91.263906
1672.000000	91.231645
1671.000000	91.263778
1670.000000	91.300906
1669.000000	91.409160
1668.000000	91.372841
1667.000000	91.266556
1666.000000	91.221073
1665.000000	91.220412
1664.000000	91.215119
1663.000000	91.219216
1662.000000	91.222495
1661.000000	91.227711
1660.000000	91.245205
1659.000000	91.251652
1658.000000	91.278408
1657.000000	91.252565
1656.000000	91.258631
1655.000000	91.257418
1654.000000	91.256909
1653.000000	91.280099
1652.000000	91.279569
1651.000000	91.281086
1650.000000	91.271422
1649.000000	91.289233
1648.000000	91.304111
1647.000000	91.283442
1646.000000	91.305825
1645.000000	91.297671
1644.000000	91.272112
1643.000000	91.287790
1642.000000	91.285698
1641.000000	91.304889
1640.000000	91.275445
1639.000000	91.284348
1638.000000	91.297651
1637.000000	91.306519
1636.000000	91.303628
1635.000000	91.294842
1634.000000	91.278741
1633.000000	91.292343
1632.000000	91.288902
1631.000000	91.294433
1630.000000	91.320983
1629.000000	91.324835
1628.000000	91.321939
1627.000000	91.307833
1626.000000	91.295206
1625.000000	91.315659
1624.000000	91.315455
1623.000000	91.309462
1622.000000	91.321912
1621.000000	91.334977
1620.000000	91.325894
1619.000000	91.303554
1618.000000	91.317514
1617.000000	91.327142
1616.000000	91.325590
1615.000000	91.328212
1614.000000	91.329469
1613.000000	91.342292
1612.000000	91.333428
1611.000000	91.329557
1610.000000	91.321075
1609.000000	91.335231
1608.000000	91.339831
1607.000000	91.348137
1606.000000	91.348988
1605.000000	91.343833
1604.000000	91.362679
1603.000000	91.358053
1602.000000	91.346376
1601.000000	91.333012
1600.000000	91.324736
1599.000000	91.325482
1598.000000	91.327843
1597.000000	91.344106
1596.000000	91.353419
1595.000000	91.350141
1594.000000	91.334431
1593.000000	91.334452
1592.000000	91.358019
1591.000000	91.336484
1590.000000	91.332160
1589.000000	91.347065
1588.000000	91.342373
1587.000000	91.326861
1586.000000	91.345484
1585.000000	91.362178
1584.000000	91.351470
1583.000000	91.343755
1582.000000	91.338174
1581.000000	91.340250
1580.000000	91.341585
1579.000000	91.341794
1578.000000	91.346093
1577.000000	91.350432
1576.000000	91.350454
1575.000000	91.349058
1574.000000	91.339382
1573.000000	91.325537
1572.000000	91.329328
1571.000000	91.337891
1570.000000	91.334098
1569.000000	91.333942
1568.000000	91.327998
1567.000000	91.310713
1566.000000	91.327096
1565.000000	91.329556
1564.000000	91.341655
1563.000000	91.346531
1562.000000	91.334267
1561.000000	91.326277
1560.000000	91.327509
1559.000000	91.323914
1558.000000	91.328338
1557.000000	91.330494
1556.000000	91.324233
1555.000000	91.326153
1554.000000	91.335821
1553.000000	91.333400
1552.000000	91.323833
1551.000000	91.309323
1550.000000	91.306300
1549.000000	91.323754
1548.000000	91.321415
1547.000000	91.322910
1546.000000	91.318241
1545.000000	91.310601
1544.000000	91.307907
1543.000000	91.309642
1542.000000	91.310854
1541.000000	91.294392
1540.000000	91.307100
1539.000000	91.307345
1538.000000	91.310330
1537.000000	91.305211
1536.000000	91.287423
1535.000000	91.297809
1534.000000	91.286253
1533.000000	91.296709
1532.000000	91.279029
1531.000000	91.291524
1530.000000	91.290871
1529.000000	91.297307
1528.000000	91.302260
1527.000000	91.289916
1526.000000	91.286071
1525.000000	91.280574
1524.000000	91.276333
1523.000000	91.265130
1522.000000	91.251092
1521.000000	91.253394
1520.000000	91.263977
1519.000000	91.257733
1518.000000	91.268559
1517.000000	91.278325
1516.000000	91.276516
1515.000000	91.253573
1514.000000	91.249677
1513.000000	91.245445
1512.000000	91.258631
1511.000000	91.254183
1510.000000	91.256905
1509.000000	91.245921
1508.000000	91.242570
1507.000000	91.219766
1506.000000	91.234658
1505.000000	91.221185
1504.000000	91.231187
1503.000000	91.241968
1502.000000	91.238627
1501.000000	91.236513
1500.000000	91.232272
1499.000000	91.223181
1498.000000	91.208242
1497.000000	91.204536
1496.000000	91.221559
1495.000000	91.206970
1494.000000	91.204857
1493.000000	91.205542
1492.000000	91.190001
1491.000000	91.201355
1490.000000	91.187693
1489.000000	91.181454
1488.000000	91.180936
1487.000000	91.192943
1486.000000	91.180594
1485.000000	91.171769
1484.000000	91.166236
1483.000000	91.156919
1482.000000	91.173052
1481.000000	91.153983
1480.000000	91.220693
1479.000000	91.226898
1478.000000	91.210592
1477.000000	91.231178
1476.000000	91.237690
1475.000000	91.207911
1474.000000	91.222923
1473.000000	91.189112
1472.000000	91.210045
1471.000000	91.200475
1470.000000	91.197479
1469.000000	91.211749
1468.000000	91.171415
1467.000000	91.202895
1466.000000	91.182990
1465.000000	91.188879
1464.000000	91.190420
1463.000000	91.053668
1462.000000	91.012937
1461.000000	91.016042
1460.000000	91.023159
1459.000000	91.106012
1458.000000	91.165625
1457.000000	91.150889
1456.000000	91.169957
1455.000000	91.160725
1454.000000	91.177831
1453.000000	91.153952
1452.000000	91.150297
1451.000000	91.154897
1450.000000	91.146242
1449.000000	91.138040
1448.000000	91.147089
1447.000000	91.133040
1446.000000	91.125067
1445.000000	91.115471
1444.000000	91.101677
1443.000000	91.118857
1442.000000	91.096143
1441.000000	91.096368
1440.000000	91.090615
1439.000000	91.093480
1438.000000	91.088879
1437.000000	91.082306
1436.000000	91.073124
1435.000000	91.069897
1434.000000	91.095168
1433.000000	91.084762
1432.000000	91.053421
1431.000000	91.043346
1430.000000	91.034390
1429.000000	91.047703
1428.000000	91.042649
1427.000000	91.042742
1426.000000	91.023169
1425.000000	91.019711
1424.000000	90.992341
1423.000000	91.004205
1422.000000	91.027847
1421.000000	90.887324
1420.000000	90.846931
1419.000000	90.816278
1418.000000	90.854602
1417.000000	90.958652
1416.000000	90.946723
1415.000000	90.954761
1414.000000	90.961422
1413.000000	90.972106
1412.000000	90.941147
1411.000000	90.939320
1410.000000	90.939370
1409.000000	90.946061
1408.000000	90.926624
1407.000000	90.936053
1406.000000	90.963398
1405.000000	90.924270
1404.000000	90.946665
1403.000000	90.939979
1402.000000	90.926998
1401.000000	90.924543
1400.000000	90.908823
1399.000000	90.904317
1398.000000	90.890148
1397.000000	90.826985
1396.000000	90.821241
1395.000000	90.802677
1394.000000	90.823157
1393.000000	90.820189
1392.000000	90.798866
1391.000000	90.817897
1390.000000	90.818727
1389.000000	90.790780
1388.000000	90.780793
1387.000000	90.782592
1386.000000	90.788432
1385.000000	90.771236
1384.000000	90.761118
1383.000000	90.765819
1382.000000	90.769216
1381.000000	90.772673
1380.000000	90.760955
1379.000000	90.758223
1378.000000	90.735461
1377.000000	90.744057
1376.000000	90.729402
1375.000000	90.731643
1374.000000	90.724201
1373.000000	90.724439
1372.000000	90.718541
1371.000000	90.698474
1370.000000	90.707976
1369.000000	90.704556
1368.000000	90.701696
1367.000000	90.691962
1366.000000	90.686810
1365.000000	90.709469
1364.000000	90.718012
1363.000000	90.773530
1362.000000	90.782852
1361.000000	90.758862
1360.000000	90.685348
1359.000000	90.626608
1358.000000	90.743651
1357.000000	90.764355
1356.000000	90.773411
1355.000000	90.705923
1354.000000	90.706674
1353.000000	90.709437
1352.000000	90.697518
1351.000000	90.655411
1350.000000	90.597613
1349.000000	90.583011
1348.000000	90.576823
1347.000000	90.590910
1346.000000	90.576066
1345.000000	90.550623
1344.000000	90.558782
1343.000000	90.550720
1342.000000	90.542263
1341.000000	90.542011
1340.000000	90.536080
1339.000000	90.521418
1338.000000	90.518182
1337.000000	90.523807
1336.000000	90.511620
1335.000000	90.493753
1334.000000	90.483754
1333.000000	90.492316
1332.000000	90.493791
1331.000000	90.481753
1330.000000	90.476480
1329.000000	90.461380
1328.000000	90.448394
1327.000000	90.450542
1326.000000	90.446809
1325.000000	90.437564
1324.000000	90.428864
1323.000000	90.425377
1322.000000	90.430013
1321.000000	90.435357
1320.000000	90.425974
1319.000000	90.408898
1318.000000	90.405982
1317.000000	90.398772
1316.000000	90.381865
1315.000000	90.381336
1314.000000	90.377789
1313.000000	90.370153
1312.000000	90.378631
1311.000000	90.363913
1310.000000	90.342309
1309.000000	90.336063
1308.000000	90.322535
1307.000000	90.317511
1306.000000	90.330116
1305.000000	90.321626
1304.000000	90.310769
1303.000000	90.311740
1302.000000	90.302031
1301.000000	90.282798
1300.000000	90.280699
1299.000000	90.283936
1298.000000	90.286200
1297.000000	90.283082
1296.000000	90.280076
1295.000000	90.267918
1294.000000	90.257396
1293.000000	90.255708
1292.000000	90.255341
1291.000000	90.240648
1290.000000	90.224580
1289.000000	90.222697
1288.000000	90.227500
1287.000000	90.223961
1286.000000	90.222628
1285.000000	90.209792
1284.000000	90.197134
1283.000000	90.186805
1282.000000	90.173590
1281.000000	90.171335
1280.000000	90.161801
1279.000000	90.160798
1278.000000	90.145655
1277.000000	90.136068
1276.000000	90.134668
1275.000000	90.128318
1274.000000	90.115355
1273.000000	90.109862
1272.000000	90.107967
1271.000000	90.102988
1270.000000	90.103469
1269.000000	90.095095
1268.000000	90.086141
1267.000000	90.076627
1266.000000	90.054115
1265.000000	90.055777
1264.000000	90.057057
1263.000000	90.053899
1262.000000	90.051267
1261.000000	90.039989
1260.000000	90.020085
1259.000000	90.035577
1258.000000	90.027719
1257.000000	90.016367
1256.000000	90.020085
1255.000000	90.002081
1254.000000	89.984187
1253.000000	89.991260
1252.000000	89.995271
1251.000000	89.979958
1250.000000	89.960662
1249.000000	89.964095
1248.000000	89.956357
1247.000000	89.946896
1246.000000	89.924399
1245.000000	89.927854
1244.000000	89.925880
1243.000000	89.930628
1242.000000	89.918416
1241.000000	89.907092
1240.000000	89.915205
1239.000000	89.908545
1238.000000	89.907085
1237.000000	89.885126
1236.000000	89.878811
1235.000000	89.867989
1234.000000	89.853325
1233.000000	89.854764
1232.000000	89.847831
1231.000000	89.834961
1230.000000	89.847503
1229.000000	89.848194
1228.000000	89.838584
1227.000000	89.824312
1226.000000	89.812531
1225.000000	89.807719
1224.000000	89.792233
1223.000000	89.803390
1222.000000	89.798711
1221.000000	89.764858
1220.000000	89.773803
1219.000000	89.770303
1218.000000	89.768677
1217.000000	89.756716
1216.000000	89.761050
1215.000000	89.740165
1214.000000	89.745187
1213.000000	89.747893
1212.000000	89.711627
1211.000000	89.722367
1210.000000	89.712800
1209.000000	89.696993
1208.000000	89.692413
1207.000000	89.684714
1206.000000	89.689263
1205.000000	89.684566
1204.000000	89.677337
1203.000000	89.682942
1202.000000	89.658417
1201.000000	89.651440
1200.000000	89.667371
1199.000000	89.634150
1198.000000	89.627336
1197.000000	89.631897
1196.000000	89.615389
1195.000000	89.614627
1194.000000	89.606560
1193.000000	89.593452
1192.000000	89.567760
1191.000000	89.592570
1190.000000	89.568521
1189.000000	89.574756
1188.000000	89.561483
1187.000000	89.566536
1186.000000	89.567647
1185.000000	89.547458
1184.000000	89.548807
1183.000000	89.539772
1182.000000	89.531706
1181.000000	89.516462
1180.000000	89.501782
1179.000000	89.497170
1178.000000	89.507521
1177.000000	89.504606
1176.000000	89.506268
1175.000000	89.487982
1174.000000	89.472733
1173.000000	89.459791
1172.000000	89.455273
1171.000000	89.436208
1170.000000	89.449047
1169.000000	89.431959
1168.000000	89.435923
1167.000000	89.439382
1166.000000	89.412090
1165.000000	89.415377
1164.000000	89.412049
1163.000000	89.415279
1162.000000	89.386934
1161.000000	89.383275
1160.000000	89.388441
1159.000000	89.382018
1158.000000	89.371345
1157.000000	89.363091
1156.000000	89.359108
1155.000000	89.359038
1154.000000	89.348967
1153.000000	89.356775
1152.000000	89.335736
1151.000000	89.331536
1150.000000	89.319975
1149.000000	89.326789
1148.000000	89.312605
1147.000000	89.302299
1146.000000	89.313486
1145.000000	89.298701
1144.000000	89.290294
1143.000000	89.276162
1142.000000	89.266977
1141.000000	89.269478
1140.000000	89.272074
1139.000000	89.260203
1138.000000	89.253071
1137.000000	89.255238
1136.000000	89.245486
1135.000000	89.246064
1134.000000	89.243193
1133.000000	89.237894
1132.000000	89.221550
1131.000000	89.209650
1130.000000	89.205220
1129.000000	89.201947
1128.000000	89.193031
1127.000000	89.163985
1126.000000	89.184273
1125.000000	89.191234
1124.000000	89.162828
1123.000000	89.160177
1122.000000	89.154583
1121.000000	89.154428
1120.000000	89.157298
1119.000000	89.138335
1118.000000	89.136149
1117.000000	89.119967
1116.000000	89.113564
1115.000000	89.115898
1114.000000	89.112506
1113.000000	89.096987
1112.000000	89.090176
1111.000000	89.097620
1110.000000	89.093945
1109.000000	89.082427
1108.000000	89.089852
1107.000000	89.076214
1106.000000	89.078610
1105.000000	89.070341
1104.000000	89.047722
1103.000000	89.043889
1102.000000	89.041679
1101.000000	89.045787
1100.000000	89.038800
1099.000000	89.024194
1098.000000	89.023272
1097.000000	89.018298
1096.000000	89.033126
1095.000000	89.070215
1094.000000	89.074529
1093.000000	89.067776
1092.000000	89.069965
1091.000000	89.067638
1090.000000	89.075347
1089.000000	89.060722
1088.000000	89.047170
1087.000000	89.045562
1086.000000	89.049830
1085.000000	89.046119
1084.000000	89.040326
1083.000000	89.027499
1082.000000	89.021357
1081.000000	89.023951
1080.000000	89.012967
1079.000000	89.007662
1078.000000	89.002975
1077.000000	88.987370
1076.000000	88.986716
1075.000000	88.983067
1074.000000	88.977167
1073.000000	88.975348
1072.000000	88.970130
1071.000000	88.954160
1070.000000	88.949122
1069.000000	88.962033
1068.000000	88.965840
1067.000000	88.959365
1066.000000	88.987963
1065.000000	89.025430
1064.000000	89.025501
1063.000000	89.014403
1062.000000	89.014782
1061.000000	89.020259
1060.000000	89.018493
1059.000000	89.006544
1058.000000	89.000284
1057.000000	88.968513
1056.000000	88.931336
1055.000000	88.919867
1054.000000	88.822067
1053.000000	88.822757
1052.000000	88.884677
1051.000000	88.874348
1050.000000	88.883854
1049.000000	88.886449
1048.000000	88.885390
1047.000000	88.875894
1046.000000	88.871854
1045.000000	88.867775
1044.000000	88.849694
1043.000000	88.857128
1042.000000	88.868771
1041.000000	88.861677
1040.000000	88.851311
1039.000000	88.854697
1038.000000	88.852314
1037.000000	88.791769
1036.000000	88.734977
1035.000000	88.742795
1034.000000	88.750587
1033.000000	88.749179
1032.000000	88.755734
1031.000000	88.742342
1030.000000	88.741325
1029.000000	88.738498
1028.000000	88.712724
1027.000000	88.719934
1026.000000	88.726279
1025.000000	88.728856
1024.000000	88.737281
1023.000000	88.725533
1022.000000	88.731850
1021.000000	88.707243
1020.000000	88.680306
1019.000000	88.698268
1018.000000	88.699679
1017.000000	88.698818
1016.000000	88.691867
1015.000000	88.673994
1014.000000	88.664643
1013.000000	88.676489
1012.000000	88.658688
1011.000000	88.673177
1010.000000	88.682197
1009.000000	88.670607
1008.000000	88.677779
1007.000000	88.674086
1006.000000	88.649816
1005.000000	88.667242
1004.000000	88.665427
1003.000000	88.665822
1002.000000	88.654684
1001.000000	88.641143
1000.000000	88.627915
999.000000	88.642733
998.000000	88.624884
997.000000	88.648899
996.000000	88.656835
995.000000	88.638110
994.000000	88.641648
993.000000	88.646328
992.000000	88.626799
991.000000	88.616715
990.000000	88.612876
989.000000	88.604117
988.000000	88.621171
987.000000	88.619040
986.000000	88.607964
985.000000	88.625285
984.000000	88.636669
983.000000	88.615828
982.000000	88.617117
981.000000	88.611457
980.000000	88.623984
979.000000	88.604850
978.000000	88.616773
977.000000	88.598878
976.000000	88.627272
975.000000	88.603104
974.000000	88.601940
973.000000	88.589648
972.000000	88.614158
971.000000	88.577426
970.000000	88.736183
969.000000	88.730054
968.000000	88.764283
967.000000	88.782979
966.000000	88.775038
965.000000	88.764410
964.000000	88.765392
963.000000	88.772366
962.000000	88.779552
961.000000	88.819357
960.000000	88.699805
959.000000	88.630288
958.000000	88.572355
957.000000	88.613286
956.000000	88.622505
955.000000	88.599947
954.000000	88.603283
953.000000	88.628638
952.000000	88.617211
951.000000	88.604464
950.000000	88.638182
949.000000	88.615032
948.000000	88.578758
947.000000	88.598508
946.000000	88.614215
945.000000	88.546920
944.000000	88.662109
943.000000	88.598230
942.000000	88.596369
941.000000	88.613165
940.000000	88.642863
939.000000	88.611414
938.000000	88.601416
937.000000	88.660708
936.000000	88.632904
935.000000	88.556331
934.000000	88.681145
933.000000	88.565949
932.000000	88.658265
931.000000	88.676066
930.000000	88.619051
929.000000	88.605193
928.000000	88.703387
927.000000	88.656959
926.000000	88.590922
925.000000	88.624158
924.000000	88.637810
923.000000	88.647460
922.000000	88.676982
921.000000	88.695027
920.000000	88.631362
919.000000	88.723745
918.000000	88.743248
917.000000	88.768366
916.000000	88.737017
915.000000	88.672855
914.000000	88.706903
913.000000	88.731269
912.000000	88.609080
911.000000	88.628749
910.000000	88.659802
909.000000	88.564850
908.000000	88.691820
907.000000	88.704487
906.000000	88.701199
905.000000	88.651813
904.000000	88.726649
903.000000	88.692202
902.000000	88.687764
901.000000	88.620495
900.000000	88.682072
899.000000	88.637309
898.000000	88.786813
897.000000	88.711750
896.000000	88.653599
895.000000	88.697996
894.000000	88.710809
893.000000	88.726807
892.000000	88.647486
891.000000	88.784312
890.000000	88.710763
889.000000	88.679478
888.000000	88.745224
887.000000	88.619073
886.000000	88.788844
885.000000	88.705954
884.000000	88.775082
883.000000	88.809525
882.000000	88.803659
881.000000	88.971990
880.000000	88.950826
879.000000	88.852750
878.000000	88.785447
877.000000	88.846622
876.000000	88.735385
875.000000	88.745253
874.000000	88.825019
873.000000	88.746004
872.000000	88.739517
871.000000	88.756635
870.000000	88.634973
869.000000	88.696953
868.000000	88.777065
867.000000	88.871051
866.000000	88.798180
865.000000	88.783654
864.000000	88.794523
863.000000	88.762048
862.000000	88.856972
861.000000	89.015525
860.000000	89.090233
859.000000	89.050323
858.000000	88.701636
857.000000	88.837327
856.000000	89.138546
855.000000	88.909038
854.000000	88.852520
853.000000	88.680623
852.000000	88.754961
851.000000	88.922814
850.000000	88.942458
849.000000	88.802432
848.000000	88.760983
847.000000	88.828771
846.000000	88.769011
845.000000	88.713962
844.000000	88.748171
843.000000	88.871756
842.000000	88.843062
841.000000	88.867346
840.000000	88.858709
839.000000	88.849143
838.000000	88.894729
837.000000	88.853269
836.000000	88.700131
835.000000	88.905247
834.000000	88.896020
833.000000	88.805345
832.000000	89.026182
831.000000	88.886606
830.000000	88.842364
829.000000	88.960233
828.000000	88.896430
827.000000	88.850718
826.000000	88.814954
825.000000	88.787546
824.000000	88.869193
823.000000	88.938168
822.000000	88.982149
821.000000	88.945134
820.000000	88.907021
819.000000	88.991330
818.000000	88.986131
817.000000	88.976067
816.000000	88.918118
815.000000	88.907925
814.000000	88.974164
813.000000	89.067636
812.000000	89.060931
811.000000	89.012850
810.000000	88.961378
809.000000	88.977355
808.000000	89.022612
807.000000	89.041946
806.000000	89.010706
805.000000	89.004273
804.000000	88.999545
803.000000	88.999023
802.000000	89.028739
801.000000	88.989409
800.000000	89.035332
799.000000	89.091139
798.000000	89.035673
797.000000	89.036763
796.000000	89.047978
795.000000	89.054302
794.000000	89.100149
793.000000	89.131049
792.000000	89.101188
791.000000	89.115446
790.000000	89.106512
789.000000	89.097265
788.000000	89.110780
787.000000	89.092710
786.000000	89.100910
785.000000	89.113413
784.000000	89.168202
783.000000	89.168197
782.000000	89.147528
781.000000	89.215052
780.000000	89.221442
779.000000	89.162676
778.000000	89.159755
777.000000	89.186520
776.000000	89.199543
775.000000	89.187351
774.000000	89.192410
773.000000	89.200797
772.000000	89.210538
771.000000	89.249492
770.000000	89.263337
769.000000	89.258859
768.000000	89.268628
767.000000	89.260391
766.000000	89.249666
765.000000	89.250517
764.000000	89.262720
763.000000	89.254052
762.000000	89.229621
761.000000	89.254766
760.000000	89.266190
759.000000	89.265779
758.000000	89.300004
757.000000	89.318280
756.000000	89.294319
755.000000	89.324158
754.000000	89.347116
753.000000	89.339713
752.000000	89.318362
751.000000	89.296923
750.000000	89.293723
749.000000	89.299429
748.000000	89.328942
747.000000	89.352425
746.000000	89.365935
745.000000	89.373191
744.000000	89.333690
743.000000	89.350549
742.000000	89.359280
741.000000	89.354421
740.000000	89.350101
739.000000	89.368102
738.000000	89.416230
737.000000	89.396641
736.000000	89.384511
735.000000	89.327965
734.000000	89.325019
733.000000	89.342643
732.000000	89.321389
731.000000	89.352061
730.000000	89.353424
729.000000	89.339678
728.000000	89.336993
727.000000	89.372172
726.000000	89.360920
725.000000	89.373098
724.000000	89.368106
723.000000	89.355199
722.000000	89.334886
721.000000	89.415309
720.000000	89.392883
719.000000	89.371304
718.000000	89.353864
717.000000	89.350948
716.000000	89.310399
715.000000	89.343595
714.000000	89.348305
713.000000	89.331505
712.000000	89.301783
711.000000	89.348257
710.000000	89.306029
709.000000	89.352199
708.000000	89.302226
707.000000	89.311465
706.000000	89.299147
705.000000	89.319710
704.000000	89.302493
703.000000	89.288222
702.000000	89.269275
701.000000	89.240905
700.000000	89.266144
699.000000	89.275347
698.000000	89.272070
697.000000	89.333441
696.000000	89.272528
695.000000	89.236443
694.000000	89.251156
693.000000	89.241948
692.000000	89.259789
691.000000	89.194096
690.000000	89.201055
689.000000	89.244960
688.000000	89.240904
687.000000	89.228924
686.000000	89.248561
685.000000	89.246243
684.000000	89.225672
683.000000	89.179560
682.000000	89.143557
681.000000	89.195737
680.000000	89.158480
679.000000	89.191626
678.000000	89.164613
677.000000	89.149311
676.000000	89.096112
675.000000	89.168370
674.000000	89.153361
673.000000	89.088463
672.000000	89.101942
671.000000	89.094576
670.000000	89.078739
669.000000	89.066112
668.000000	89.060836
667.000000	89.032944
666.000000	88.999489
665.000000	89.013862
664.000000	89.024226
663.000000	89.002289
662.000000	88.950887
661.000000	88.975860
660.000000	88.971820
659.000000	88.947379
658.000000	88.939163
657.000000	88.878368
656.000000	88.870721
655.000000	88.875239
654.000000	88.869809
653.000000	88.835806
652.000000	88.812899
651.000000	88.770524
650.000000	88.788944
649.000000	88.760015
648.000000	88.758676
647.000000	88.719958
646.000000	88.722185
645.000000	88.710924
644.000000	88.663158
643.000000	88.668623
642.000000	88.690088
641.000000	88.616484
640.000000	88.619970
639.000000	88.579127
638.000000	88.575838
637.000000	88.545335
636.000000	88.529568
635.000000	88.478729
634.000000	88.453978
633.000000	88.444860
632.000000	88.420275
631.000000	88.391615
630.000000	88.383637
629.000000	88.329397
628.000000	88.336250
627.000000	88.322594
626.000000	88.299490
625.000000	88.260305
624.000000	88.236731
623.000000	88.242471
622.000000	88.196831
621.000000	88.170473
620.000000	88.169603
619.000000	88.125092
618.000000	88.108142
617.000000	88.083030
616.000000	88.041080
615.000000	88.014874
614.000000	87.987035
613.000000	87.969634
612.000000	87.947017
611.000000	87.925644
610.000000	87.886063
609.000000	87.867879
608.000000	87.845155
607.000000	87.823837
606.000000	87.796037
605.000000	87.757854
604.000000	87.745210
603.000000	87.714620
602.000000	87.691495
601.000000	87.653896
600.000000	87.622477
599.000000	87.578484
598.000000	87.581154
597.000000	87.531418
596.000000	87.514896
595.000000	87.489185
594.000000	87.456899
593.000000	87.419281
592.000000	87.400125
591.000000	87.369062
590.000000	87.324365
589.000000	87.290563
588.000000	87.276940
587.000000	87.224090
586.000000	87.207326
585.000000	87.173278
584.000000	87.135767
583.000000	87.117309
582.000000	87.089093
581.000000	87.033598
580.000000	87.031286
579.000000	87.000889
578.000000	86.956273
577.000000	86.925111
576.000000	86.908838
575.000000	86.879918
574.000000	86.837577
573.000000	86.803851
572.000000	86.794468
571.000000	86.766324
570.000000	86.726897
569.000000	86.685088
568.000000	86.659856
567.000000	86.641213
566.000000	86.626174
565.000000	86.593530
564.000000	86.555880
563.000000	86.524271
562.000000	86.504310
561.000000	86.461805
560.000000	86.440669
559.000000	86.413128
558.000000	86.378352
557.000000	86.347627
556.000000	86.310612
555.000000	86.294890
554.000000	86.282746
553.000000	86.230797
552.000000	86.195899
551.000000	86.163158
550.000000	86.121158
549.000000	86.110281
548.000000	86.096368
547.000000	86.067999
546.000000	86.046063
545.000000	86.011504
544.000000	85.964214
543.000000	85.946749
542.000000	85.930410
541.000000	85.901902
540.000000	85.882529
539.000000	85.874038
538.000000	85.855648
537.000000	85.826959
536.000000	85.792175
535.000000	85.773898
534.000000	85.760882
533.000000	85.748926
532.000000	85.750294
531.000000	85.725707
530.000000	85.688461
529.000000	85.674451
528.000000	85.662944
527.000000	85.647098
526.000000	85.631722
525.000000	85.616507
524.000000	85.594843
523.000000	85.588268
522.000000	85.579684
521.000000	85.573854
520.000000	85.574872
519.000000	85.546495
518.000000	85.522995
517.000000	85.522946
516.000000	85.521078
515.000000	85.483104
514.000000	85.487622
513.000000	85.500076
512.000000	85.501679
511.000000	85.496824
510.000000	85.479131
509.000000	85.485969
508.000000	85.497773
507.000000	85.482769
506.000000	85.517161
505.000000	85.512365
504.000000	85.501183
503.000000	85.491803
502.000000	85.491588
501.000000	85.490674
500.000000	85.505849
499.000000	85.510187
498.000000	85.513887
497.000000	85.534127
496.000000	85.561161
495.000000	85.537921
494.000000	85.546739
493.000000	85.559121
492.000000	85.550064
491.000000	85.548902
490.000000	85.587637
489.000000	85.622465
488.000000	85.618138
487.000000	85.605703
486.000000	85.635151
485.000000	85.652772
484.000000	85.653715
483.000000	85.672220
482.000000	85.721548
481.000000	85.708832
480.000000	85.728290
479.000000	85.750877
478.000000	85.788250
477.000000	85.802510
476.000000	85.821013
475.000000	85.862472
474.000000	85.893061
473.000000	85.905289
472.000000	85.942275
471.000000	85.962452
470.000000	85.992138
469.000000	86.043530
468.000000	86.076048
467.000000	86.087048
466.000000	86.107084
465.000000	86.146582
464.000000	86.193598
463.000000	86.224852
462.000000	86.261604
461.000000	86.262310
460.000000	86.332323
459.000000	86.365240
458.000000	86.402324
457.000000	86.405978
456.000000	86.444538
455.000000	86.451796
454.000000	86.542649
453.000000	86.527008
452.000000	86.575670
451.000000	86.555111
450.000000	86.645325
449.000000	86.686213
448.000000	86.662975
447.000000	86.711605
446.000000	86.739394
445.000000	86.762530
444.000000	86.780055
443.000000	86.788268
442.000000	86.825441
441.000000	86.802105
440.000000	86.826208
439.000000	86.821812
438.000000	86.822867
437.000000	86.906482
436.000000	86.862167
435.000000	86.905146
434.000000	86.905399
433.000000	86.927012
432.000000	86.879842
431.000000	86.842834
430.000000	86.895519
429.000000	86.854408
428.000000	86.833482
427.000000	86.837435
426.000000	86.755433
425.000000	86.690848
424.000000	86.601754
423.000000	86.619768
422.000000	86.508976
421.000000	86.416009
420.000000	86.377307
419.000000	86.283211
418.000000	86.204367
417.000000	86.139580
416.000000	86.022007
415.000000	85.902322
414.000000	85.760914
413.000000	85.614781
412.000000	85.527401
411.000000	85.334830
410.000000	85.168667
409.000000	84.951862
408.000000	84.787898
407.000000	84.586938
406.000000	84.372327
405.000000	84.163395
404.000000	83.932501
403.000000	83.685282
402.000000	83.361982
401.000000	83.059504
400.000000	82.775767
399.000000	82.462020
398.000000	82.118045
397.000000	81.807534
396.000000	81.448784
395.000000	81.052740
394.000000	80.628209
393.000000	80.278356
392.000000	79.822051
391.000000	79.362999
390.000000	78.899568
389.000000	78.361658
388.000000	77.903220
387.000000	77.361015
386.000000	76.812050
385.000000	76.252416
384.000000	75.682481
383.000000	75.104959
382.000000	74.459853
381.000000	73.875243
380.000000	73.206723
379.000000	72.503357
378.000000	71.892549
377.000000	71.118053
376.000000	70.442623
375.000000	69.779020
374.000000	69.011611
373.000000	68.291970
372.000000	67.489762
371.000000	66.722226
370.000000	65.868883
369.000000	65.148379
368.000000	64.294079
367.000000	63.451279
366.000000	62.581361
365.000000	61.695278
364.000000	60.691561
363.000000	59.790563
362.000000	58.928020
361.000000	57.996666
360.000000	56.974246
359.000000	56.037771
358.000000	55.021579
357.000000	53.985593
356.000000	52.992802
355.000000	51.908219
354.000000	50.860088
353.000000	49.850151
352.000000	48.709068
351.000000	47.612843
350.000000	46.535694
349.000000	45.351829
348.000000	44.199128
347.000000	43.116850
346.000000	41.919647
345.000000	40.741403
344.000000	39.508281
343.000000	38.327437
342.000000	37.108164
341.000000	35.905390
340.000000	34.649137
339.000000	33.388366
338.000000	32.171863
337.000000	30.836726
336.000000	29.587042
335.000000	28.304326
334.000000	27.037033
333.000000	25.773224
332.000000	24.456071
331.000000	23.136195
330.000000	21.834013
329.000000	20.593379
328.000000	19.313897
327.000000	18.128395
326.000000	16.936304
325.000000	15.741631
324.000000	14.629058
323.000000	13.540756
322.000000	12.507345
321.000000	11.466482
320.000000	10.473052
319.000000	9.540996
318.000000	8.707969
317.000000	7.946135
316.000000	7.211820
315.000000	6.535165
314.000000	5.904258
313.000000	5.312091
312.000000	4.777711
311.000000	4.304264
310.000000	3.862080
309.000000	3.454743
308.000000	3.100060
307.000000	2.780807
306.000000	2.490815
305.000000	2.232952
304.000000	2.004743
303.000000	1.794846
302.000000	1.601834
301.000000	1.435924
300.000000	1.277713
299.000000	1.137923
298.000000	1.019994
297.000000	0.904711
296.000000	0.804568
295.000000	0.724185
294.000000	0.638710
293.000000	0.566941
292.000000	0.507214
291.000000	0.441223
290.000000	0.381303
289.000000	0.333895
288.000000	0.293277
287.000000	0.255622
286.000000	0.219949
285.000000	0.193368
284.000000	0.165628
283.000000	0.144372
282.000000	0.124560
281.000000	0.102016
280.000000	0.084524
279.000000	0.070128
278.000000	0.054835
277.000000	0.044161
276.000000	0.041962
275.000000	0.034607
274.000000	0.022452
273.000000	0.017654
272.000000	0.014268
271.000000	0.011692
270.000000	0.009378
269.000000	0.004556
268.000000	0.006077
267.000000	0.002146
266.000000	-0.002236
265.000000	-0.001700
264.000000	-0.000269
263.000000	0.001343
262.000000	0.001879
261.000000	0.002777
260.000000	0.004929
259.000000	0.003047
258.000000	-0.001882
257.000000	-0.002689
256.000000	0.003497
255.000000	0.001615
254.000000	-0.001975
253.000000	0.000180
252.000000	-0.000629
251.000000	0.000359
250.000000	0.002336
