PE UV       SUBTECH     SPECTRUM    ASCII       PEDS        4.00        
   -1
Sample728.Sample.asc
11/12/23
10:36:44.00
11/12/23
10:36:44.00
Analyst
Si Po 177
300.000000
1
Lambda 950
950N6032301
PerkinElmer UV WinLab 5.1.5.0637 / 1.61.00 Lambda 900

0
0
3350/servo 860.8/2
0
0
UV/VIS
1
1
1
RBeamAtt,SBeamAtt,150mm sphere / downward view
0
0
0
0
Program
Program
3350/servo 860.8/2
3350/1 860.8/1
3350/1 860.8/1
0
1
 
 
 
0
 
860.8
319.2
860.8
Front
100
 
S:100 R:100
 
0
0
0
 
0
 
 
 
0
 
 
0
0
0
0
0
 
 
 
 
0
0
#HDR
-1
-1
#GR
nm
%T
1.0
0.0
2500.000000
-1.000000
2201
8
7.877789
2.770289
#DATA
2500.000000	5.609415
2499.000000	5.485991
2498.000000	3.639551
2497.000000	5.023220
2496.000000	4.190504
2495.000000	5.738811
2494.000000	4.016378
2493.000000	6.120393
2492.000000	4.592622
2491.000000	6.425555
2490.000000	4.076517
2489.000000	5.579060
2488.000000	4.246922
2487.000000	5.803038
2486.000000	4.927878
2485.000000	5.149233
2484.000000	4.520382
2483.000000	6.074322
2482.000000	4.683308
2481.000000	5.207172
2480.000000	4.424122
2479.000000	4.748254
2478.000000	4.286249
2477.000000	6.223866
2476.000000	4.600887
2475.000000	5.077483
2474.000000	4.478606
2473.000000	4.821206
2472.000000	5.057847
2471.000000	5.935487
2470.000000	4.386094
2469.000000	5.610818
2468.000000	3.935028
2467.000000	5.663460
2466.000000	4.848087
2465.000000	6.216753
2464.000000	4.839339
2463.000000	5.706012
2462.000000	4.222777
2461.000000	5.291066
2460.000000	5.106651
2459.000000	5.084522
2458.000000	4.215055
2457.000000	5.942834
2456.000000	5.083468
2455.000000	5.456989
2454.000000	4.688467
2453.000000	5.123664
2452.000000	4.193652
2451.000000	5.052870
2450.000000	4.433364
2449.000000	5.159415
2448.000000	4.705616
2447.000000	5.561679
2446.000000	5.142423
2445.000000	5.577490
2444.000000	4.735809
2443.000000	4.640243
2442.000000	4.625780
2441.000000	5.098652
2440.000000	4.976432
2439.000000	5.476540
2438.000000	5.019332
2437.000000	4.945583
2436.000000	4.548831
2435.000000	4.836138
2434.000000	4.015552
2433.000000	5.070637
2432.000000	5.187154
2431.000000	5.375169
2430.000000	4.833066
2429.000000	5.049532
2428.000000	4.821983
2427.000000	5.514539
2426.000000	4.524028
2425.000000	5.422282
2424.000000	4.713338
2423.000000	4.664136
2422.000000	4.592198
2421.000000	5.061172
2420.000000	4.804148
2419.000000	5.466675
2418.000000	4.485435
2417.000000	4.797007
2416.000000	4.728632
2415.000000	5.102276
2414.000000	4.672166
2413.000000	5.099835
2412.000000	4.850547
2411.000000	5.336543
2410.000000	5.188198
2409.000000	5.005296
2408.000000	4.522527
2407.000000	5.241658
2406.000000	4.867947
2405.000000	5.116438
2404.000000	5.286207
2403.000000	4.978223
2402.000000	4.840894
2401.000000	5.574330
2400.000000	5.088882
2399.000000	4.901141
2398.000000	4.763470
2397.000000	5.285863
2396.000000	5.222572
2395.000000	5.381526
2394.000000	5.039979
2393.000000	5.049513
2392.000000	4.833520
2391.000000	4.669558
2390.000000	4.818166
2389.000000	4.791236
2388.000000	5.127536
2387.000000	5.544232
2386.000000	4.937975
2385.000000	4.905656
2384.000000	4.941814
2383.000000	5.199188
2382.000000	5.066151
2381.000000	4.944774
2380.000000	5.004076
2379.000000	4.991176
2378.000000	4.964420
2377.000000	5.042115
2376.000000	5.110046
2375.000000	5.196874
2374.000000	4.954659
2373.000000	4.842377
2372.000000	4.830336
2371.000000	5.213583
2370.000000	5.224206
2369.000000	5.150846
2368.000000	5.156295
2367.000000	5.039026
2366.000000	5.112540
2365.000000	5.190578
2364.000000	4.953484
2363.000000	5.105943
2362.000000	5.420238
2361.000000	5.420213
2360.000000	5.229368
2359.000000	5.372419
2358.000000	5.664778
2357.000000	5.060007
2356.000000	5.040319
2355.000000	5.092261
2354.000000	5.267736
2353.000000	5.223319
2352.000000	5.463019
2351.000000	5.457308
2350.000000	5.142485
2349.000000	4.638893
2348.000000	5.063308
2347.000000	5.129561
2346.000000	5.213383
2345.000000	5.195475
2344.000000	5.200551
2343.000000	4.971832
2342.000000	5.168887
2341.000000	5.180211
2340.000000	5.123690
2339.000000	5.020178
2338.000000	5.273018
2337.000000	5.045134
2336.000000	5.227332
2335.000000	4.881080
2334.000000	4.854443
2333.000000	5.062332
2332.000000	5.383106
2331.000000	4.765966
2330.000000	4.918798
2329.000000	5.157692
2328.000000	5.288845
2327.000000	5.031409
2326.000000	5.356915
2325.000000	5.398503
2324.000000	5.482427
2323.000000	5.189320
2322.000000	5.624972
2321.000000	4.912931
2320.000000	5.358671
2319.000000	5.173305
2318.000000	5.090974
2317.000000	5.099127
2316.000000	5.183289
2315.000000	5.160695
2314.000000	5.411855
2313.000000	4.800219
2312.000000	5.274025
2311.000000	4.902623
2310.000000	5.371191
2309.000000	4.970808
2308.000000	5.130479
2307.000000	5.015031
2306.000000	5.360634
2305.000000	4.928126
2304.000000	5.189187
2303.000000	4.935093
2302.000000	5.134099
2301.000000	4.929412
2300.000000	5.354373
2299.000000	5.285527
2298.000000	5.160275
2297.000000	4.799508
2296.000000	5.564273
2295.000000	4.905221
2294.000000	5.324729
2293.000000	5.033678
2292.000000	5.006656
2291.000000	5.031214
2290.000000	5.161662
2289.000000	5.085362
2288.000000	5.190463
2287.000000	4.932637
2286.000000	5.040204
2285.000000	4.979840
2284.000000	5.347949
2283.000000	4.661063
2282.000000	4.895854
2281.000000	5.088241
2280.000000	5.296156
2279.000000	4.946561
2278.000000	5.411215
2277.000000	4.763164
2276.000000	5.254978
2275.000000	4.988590
2274.000000	5.386159
2273.000000	4.716141
2272.000000	5.051131
2271.000000	4.807228
2270.000000	5.158280
2269.000000	4.859527
2268.000000	4.895306
2267.000000	4.941649
2266.000000	5.215315
2265.000000	4.655147
2264.000000	4.966128
2263.000000	4.853385
2262.000000	5.214023
2261.000000	4.578765
2260.000000	5.351846
2259.000000	4.747770
2258.000000	5.053233
2257.000000	4.932831
2256.000000	5.336519
2255.000000	5.021271
2254.000000	5.025814
2253.000000	4.802950
2252.000000	5.167841
2251.000000	4.868935
2250.000000	5.171288
2249.000000	4.789519
2248.000000	5.481649
2247.000000	4.595011
2246.000000	5.176312
2245.000000	4.933113
2244.000000	4.889285
2243.000000	4.889407
2242.000000	5.033817
2241.000000	4.895043
2240.000000	5.133674
2239.000000	4.720369
2238.000000	5.161229
2237.000000	5.135960
2236.000000	4.746737
2235.000000	5.140755
2234.000000	4.808762
2233.000000	5.012003
2232.000000	4.786572
2231.000000	5.116464
2230.000000	5.015223
2229.000000	5.052223
2228.000000	5.085048
2227.000000	4.885925
2226.000000	4.612214
2225.000000	5.299378
2224.000000	4.678104
2223.000000	5.138016
2222.000000	4.702293
2221.000000	5.012626
2220.000000	4.753219
2219.000000	4.983910
2218.000000	4.951961
2217.000000	5.007172
2216.000000	4.862807
2215.000000	5.051312
2214.000000	4.697711
2213.000000	5.143527
2212.000000	4.824962
2211.000000	4.981145
2210.000000	4.648284
2209.000000	5.219746
2208.000000	4.953319
2207.000000	4.884854
2206.000000	4.777938
2205.000000	5.014189
2204.000000	4.721225
2203.000000	4.921931
2202.000000	4.938765
2201.000000	5.092238
2200.000000	4.684191
2199.000000	5.096612
2198.000000	4.904882
2197.000000	5.132639
2196.000000	4.910637
2195.000000	4.974474
2194.000000	4.973000
2193.000000	5.080169
2192.000000	4.913613
2191.000000	4.956017
2190.000000	4.984285
2189.000000	4.947335
2188.000000	4.985423
2187.000000	5.130710
2186.000000	5.147627
2185.000000	5.205497
2184.000000	4.952719
2183.000000	4.999002
2182.000000	4.962210
2181.000000	5.010389
2180.000000	5.129368
2179.000000	5.171039
2178.000000	5.140132
2177.000000	5.204621
2176.000000	5.059609
2175.000000	5.143057
2174.000000	5.041538
2173.000000	5.123784
2172.000000	4.951041
2171.000000	5.073940
2170.000000	4.998266
2169.000000	5.218513
2168.000000	5.175536
2167.000000	5.291358
2166.000000	5.079513
2165.000000	4.929199
2164.000000	4.652874
2163.000000	5.063483
2162.000000	4.994919
2161.000000	5.192495
2160.000000	5.272256
2159.000000	5.264394
2158.000000	4.993504
2157.000000	5.127614
2156.000000	4.998755
2155.000000	5.066078
2154.000000	4.952596
2153.000000	4.848354
2152.000000	5.131163
2151.000000	5.172335
2150.000000	4.926530
2149.000000	4.863401
2148.000000	4.964866
2147.000000	5.118120
2146.000000	5.068639
2145.000000	5.023757
2144.000000	4.654469
2143.000000	5.034921
2142.000000	5.051952
2141.000000	4.808095
2140.000000	4.911562
2139.000000	5.114267
2138.000000	4.991042
2137.000000	5.004615
2136.000000	4.889086
2135.000000	4.834143
2134.000000	4.906188
2133.000000	5.141098
2132.000000	5.110969
2131.000000	5.111043
2130.000000	5.085924
2129.000000	5.115593
2128.000000	5.090868
2127.000000	4.994669
2126.000000	4.976020
2125.000000	5.021697
2124.000000	5.109987
2123.000000	5.191826
2122.000000	5.060872
2121.000000	5.018383
2120.000000	5.085251
2119.000000	5.045175
2118.000000	4.962276
2117.000000	5.184999
2116.000000	5.130651
2115.000000	4.985631
2114.000000	5.098210
2113.000000	5.113938
2112.000000	4.952757
2111.000000	4.975051
2110.000000	5.024023
2109.000000	5.000066
2108.000000	5.043964
2107.000000	4.995812
2106.000000	4.997120
2105.000000	5.104355
2104.000000	5.076208
2103.000000	5.020875
2102.000000	4.990172
2101.000000	5.050629
2100.000000	5.084966
2099.000000	5.004667
2098.000000	5.102261
2097.000000	4.947102
2096.000000	5.011005
2095.000000	5.124419
2094.000000	5.072709
2093.000000	4.965560
2092.000000	5.012824
2091.000000	5.077590
2090.000000	5.045865
2089.000000	5.011061
2088.000000	5.102415
2087.000000	5.050199
2086.000000	5.108499
2085.000000	5.126671
2084.000000	5.110343
2083.000000	5.143817
2082.000000	5.132393
2081.000000	5.093669
2080.000000	4.985045
2079.000000	5.022900
2078.000000	5.099528
2077.000000	5.010093
2076.000000	5.082923
2075.000000	5.000874
2074.000000	4.958933
2073.000000	4.933921
2072.000000	5.159148
2071.000000	5.106312
2070.000000	5.048003
2069.000000	5.046745
2068.000000	5.096863
2067.000000	4.829963
2066.000000	4.974758
2065.000000	5.131001
2064.000000	5.094058
2063.000000	5.034166
2062.000000	4.952618
2061.000000	4.917201
2060.000000	5.055462
2059.000000	4.990015
2058.000000	4.992741
2057.000000	4.966865
2056.000000	5.024896
2055.000000	4.963395
2054.000000	5.005555
2053.000000	4.954788
2052.000000	5.019999
2051.000000	4.855440
2050.000000	4.929633
2049.000000	5.036210
2048.000000	5.078442
2047.000000	5.006001
2046.000000	4.987556
2045.000000	4.926160
2044.000000	5.096825
2043.000000	4.921479
2042.000000	4.968917
2041.000000	4.854470
2040.000000	4.919121
2039.000000	5.050887
2038.000000	5.027965
2037.000000	4.886381
2036.000000	4.945270
2035.000000	4.932745
2034.000000	5.045653
2033.000000	4.885677
2032.000000	4.997600
2031.000000	4.849912
2030.000000	4.997135
2029.000000	4.890768
2028.000000	5.002006
2027.000000	4.917654
2026.000000	4.936997
2025.000000	4.955065
2024.000000	4.970240
2023.000000	4.914191
2022.000000	4.992473
2021.000000	4.874637
2020.000000	4.984621
2019.000000	4.907104
2018.000000	5.015011
2017.000000	4.948069
2016.000000	4.926231
2015.000000	4.916943
2014.000000	4.956943
2013.000000	4.899203
2012.000000	5.062415
2011.000000	4.853028
2010.000000	4.962756
2009.000000	4.894323
2008.000000	4.980434
2007.000000	4.938879
2006.000000	4.948894
2005.000000	4.900834
2004.000000	4.903715
2003.000000	4.880941
2002.000000	5.035942
2001.000000	4.877419
2000.000000	4.967781
1999.000000	4.855743
1998.000000	4.956699
1997.000000	4.906593
1996.000000	4.920257
1995.000000	4.962964
1994.000000	4.912823
1993.000000	4.886263
1992.000000	4.932723
1991.000000	4.818580
1990.000000	4.931222
1989.000000	4.813304
1988.000000	4.920773
1987.000000	4.886056
1986.000000	5.003572
1985.000000	4.933471
1984.000000	4.979537
1983.000000	4.858187
1982.000000	4.900839
1981.000000	4.851682
1980.000000	4.933943
1979.000000	4.907339
1978.000000	4.818805
1977.000000	5.038251
1976.000000	4.843687
1975.000000	4.898568
1974.000000	4.809767
1973.000000	4.927525
1972.000000	4.820145
1971.000000	4.921606
1970.000000	4.869999
1969.000000	5.022214
1968.000000	4.814636
1967.000000	4.943439
1966.000000	4.906327
1965.000000	4.923031
1964.000000	4.934469
1963.000000	4.952703
1962.000000	4.823408
1961.000000	4.966886
1960.000000	4.880211
1959.000000	4.970206
1958.000000	4.853465
1957.000000	4.907462
1956.000000	4.909906
1955.000000	4.947720
1954.000000	4.825967
1953.000000	4.977827
1952.000000	4.830480
1951.000000	4.976228
1950.000000	4.852691
1949.000000	4.980521
1948.000000	4.861759
1947.000000	5.007067
1946.000000	4.881124
1945.000000	4.891192
1944.000000	4.837392
1943.000000	4.975446
1942.000000	4.870453
1941.000000	4.946690
1940.000000	4.852987
1939.000000	4.961798
1938.000000	4.905552
1937.000000	5.023457
1936.000000	4.846069
1935.000000	4.926640
1934.000000	4.946214
1933.000000	5.027739
1932.000000	4.859997
1931.000000	4.918453
1930.000000	4.896512
1929.000000	4.896095
1928.000000	4.857699
1927.000000	4.869588
1926.000000	4.825122
1925.000000	4.911646
1924.000000	4.851055
1923.000000	4.919133
1922.000000	4.808395
1921.000000	4.952811
1920.000000	4.767186
1919.000000	4.874180
1918.000000	4.875227
1917.000000	4.899622
1916.000000	4.804217
1915.000000	4.900723
1914.000000	4.778163
1913.000000	4.860879
1912.000000	4.803992
1911.000000	4.808325
1910.000000	4.791038
1909.000000	4.792920
1908.000000	4.788183
1907.000000	4.752478
1906.000000	4.827477
1905.000000	4.968374
1904.000000	4.682744
1903.000000	4.847827
1902.000000	4.729551
1901.000000	4.831344
1900.000000	4.770658
1899.000000	4.822024
1898.000000	4.774490
1897.000000	4.774836
1896.000000	4.805849
1895.000000	4.828425
1894.000000	4.816774
1893.000000	4.769077
1892.000000	4.715381
1891.000000	4.737381
1890.000000	4.738204
1889.000000	4.829673
1888.000000	4.786753
1887.000000	4.800307
1886.000000	4.751544
1885.000000	4.799841
1884.000000	4.819412
1883.000000	4.826961
1882.000000	4.763455
1881.000000	4.870408
1880.000000	4.756964
1879.000000	4.750542
1878.000000	4.741528
1877.000000	4.742788
1876.000000	4.709358
1875.000000	4.763079
1874.000000	4.729867
1873.000000	4.751827
1872.000000	4.760969
1871.000000	4.750496
1870.000000	4.708826
1869.000000	4.722614
1868.000000	4.695242
1867.000000	4.735951
1866.000000	4.722553
1865.000000	4.737461
1864.000000	4.697971
1863.000000	4.723649
1862.000000	4.752447
1861.000000	4.746595
1860.000000	4.724307
1859.000000	4.739064
1858.000000	4.702196
1857.000000	4.703460
1856.000000	4.701081
1855.000000	4.734306
1854.000000	4.681391
1853.000000	4.672913
1852.000000	4.699877
1851.000000	4.706570
1850.000000	4.748667
1849.000000	4.757997
1848.000000	4.714664
1847.000000	4.691213
1846.000000	4.678129
1845.000000	4.647777
1844.000000	4.672462
1843.000000	4.694190
1842.000000	4.672018
1841.000000	4.674493
1840.000000	4.667178
1839.000000	4.652047
1838.000000	4.667737
1837.000000	4.643510
1836.000000	4.639329
1835.000000	4.651457
1834.000000	4.641367
1833.000000	4.641565
1832.000000	4.677059
1831.000000	4.649950
1830.000000	4.639067
1829.000000	4.614492
1828.000000	4.641969
1827.000000	4.596877
1826.000000	4.609896
1825.000000	4.686233
1824.000000	4.663349
1823.000000	4.637077
1822.000000	4.650516
1821.000000	4.617906
1820.000000	4.623331
1819.000000	4.653107
1818.000000	4.648561
1817.000000	4.628563
1816.000000	4.641408
1815.000000	4.610898
1814.000000	4.619105
1813.000000	4.586276
1812.000000	4.616439
1811.000000	4.620410
1810.000000	4.633085
1809.000000	4.593012
1808.000000	4.626238
1807.000000	4.593803
1806.000000	4.600601
1805.000000	4.571563
1804.000000	4.603969
1803.000000	4.582161
1802.000000	4.593865
1801.000000	4.571337
1800.000000	4.631034
1799.000000	4.571306
1798.000000	4.604862
1797.000000	4.573594
1796.000000	4.621827
1795.000000	4.557449
1794.000000	4.611445
1793.000000	4.587728
1792.000000	4.612021
1791.000000	4.591527
1790.000000	4.631680
1789.000000	4.598613
1788.000000	4.631555
1787.000000	4.576305
1786.000000	4.621877
1785.000000	4.556570
1784.000000	4.596133
1783.000000	4.588078
1782.000000	4.599093
1781.000000	4.563738
1780.000000	4.601768
1779.000000	4.556294
1778.000000	4.623698
1777.000000	4.538894
1776.000000	4.629827
1775.000000	4.577265
1774.000000	4.580323
1773.000000	4.512398
1772.000000	4.576715
1771.000000	4.551546
1770.000000	4.575146
1769.000000	4.554777
1768.000000	4.600173
1767.000000	4.493417
1766.000000	4.586028
1765.000000	4.539386
1764.000000	4.534035
1763.000000	4.545341
1762.000000	4.570312
1761.000000	4.505965
1760.000000	4.534412
1759.000000	4.478287
1758.000000	4.545908
1757.000000	4.495323
1756.000000	4.587761
1755.000000	4.483275
1754.000000	4.527050
1753.000000	4.492129
1752.000000	4.555430
1751.000000	4.473110
1750.000000	4.533790
1749.000000	4.473060
1748.000000	4.506752
1747.000000	4.442306
1746.000000	4.519500
1745.000000	4.472385
1744.000000	4.577018
1743.000000	4.435139
1742.000000	4.528993
1741.000000	4.445767
1740.000000	4.539585
1739.000000	4.495217
1738.000000	4.498993
1737.000000	4.491770
1736.000000	4.489775
1735.000000	4.416660
1734.000000	4.515823
1733.000000	4.423202
1732.000000	4.537083
1731.000000	4.403265
1730.000000	4.521320
1729.000000	4.417039
1728.000000	4.484064
1727.000000	4.423151
1726.000000	4.507364
1725.000000	4.418521
1724.000000	4.509354
1723.000000	4.452013
1722.000000	4.501224
1721.000000	4.425177
1720.000000	4.443776
1719.000000	4.360891
1718.000000	4.509256
1717.000000	4.413949
1716.000000	4.481024
1715.000000	4.387394
1714.000000	4.448192
1713.000000	4.414290
1712.000000	4.430252
1711.000000	4.386857
1710.000000	4.430086
1709.000000	4.443512
1708.000000	4.404669
1707.000000	4.364703
1706.000000	4.443250
1705.000000	4.429236
1704.000000	4.427933
1703.000000	4.376380
1702.000000	4.414543
1701.000000	4.391848
1700.000000	4.406698
1699.000000	4.329933
1698.000000	4.395088
1697.000000	4.369356
1696.000000	4.419259
1695.000000	4.363927
1694.000000	4.396566
1693.000000	4.276207
1692.000000	4.392786
1691.000000	4.374830
1690.000000	4.411361
1689.000000	4.375335
1688.000000	4.390541
1687.000000	4.334997
1686.000000	4.374727
1685.000000	4.328872
1684.000000	4.361296
1683.000000	4.332345
1682.000000	4.365144
1681.000000	4.322428
1680.000000	4.387034
1679.000000	4.312014
1678.000000	4.366146
1677.000000	4.311616
1676.000000	4.357152
1675.000000	4.326383
1674.000000	4.378767
1673.000000	4.290348
1672.000000	4.349738
1671.000000	4.306383
1670.000000	4.327568
1669.000000	4.315759
1668.000000	4.321382
1667.000000	4.279110
1666.000000	4.345987
1665.000000	4.296564
1664.000000	4.316153
1663.000000	4.300952
1662.000000	4.318032
1661.000000	4.280622
1660.000000	4.291116
1659.000000	4.295505
1658.000000	4.296315
1657.000000	4.285069
1656.000000	4.300635
1655.000000	4.279566
1654.000000	4.285064
1653.000000	4.261242
1652.000000	4.286996
1651.000000	4.252010
1650.000000	4.252157
1649.000000	4.259308
1648.000000	4.291176
1647.000000	4.229416
1646.000000	4.251274
1645.000000	4.252793
1644.000000	4.271034
1643.000000	4.240657
1642.000000	4.236888
1641.000000	4.242920
1640.000000	4.264548
1639.000000	4.215824
1638.000000	4.249557
1637.000000	4.234319
1636.000000	4.233139
1635.000000	4.219506
1634.000000	4.252095
1633.000000	4.241307
1632.000000	4.214557
1631.000000	4.193926
1630.000000	4.245839
1629.000000	4.224618
1628.000000	4.229102
1627.000000	4.217667
1626.000000	4.220764
1625.000000	4.214074
1624.000000	4.219988
1623.000000	4.190598
1622.000000	4.191553
1621.000000	4.188691
1620.000000	4.229826
1619.000000	4.185147
1618.000000	4.179925
1617.000000	4.172024
1616.000000	4.158291
1615.000000	4.185289
1614.000000	4.196781
1613.000000	4.181372
1612.000000	4.178154
1611.000000	4.164757
1610.000000	4.175482
1609.000000	4.186099
1608.000000	4.169102
1607.000000	4.147630
1606.000000	4.151002
1605.000000	4.153963
1604.000000	4.159040
1603.000000	4.155519
1602.000000	4.162688
1601.000000	4.135798
1600.000000	4.152055
1599.000000	4.141707
1598.000000	4.140949
1597.000000	4.139884
1596.000000	4.136327
1595.000000	4.144330
1594.000000	4.140428
1593.000000	4.122715
1592.000000	4.124247
1591.000000	4.128484
1590.000000	4.128031
1589.000000	4.124809
1588.000000	4.122751
1587.000000	4.118777
1586.000000	4.105535
1585.000000	4.114940
1584.000000	4.128589
1583.000000	4.129718
1582.000000	4.108360
1581.000000	4.100632
1580.000000	4.103183
1579.000000	4.100938
1578.000000	4.089476
1577.000000	4.073219
1576.000000	4.065012
1575.000000	4.087283
1574.000000	4.080006
1573.000000	4.075693
1572.000000	4.076231
1571.000000	4.071328
1570.000000	4.052460
1569.000000	4.063601
1568.000000	4.064374
1567.000000	4.068733
1566.000000	4.049256
1565.000000	4.057685
1564.000000	4.043923
1563.000000	4.045473
1562.000000	4.033818
1561.000000	4.039500
1560.000000	4.039315
1559.000000	4.054416
1558.000000	4.049236
1557.000000	4.042843
1556.000000	4.016547
1555.000000	4.009273
1554.000000	4.024530
1553.000000	4.045699
1552.000000	4.012877
1551.000000	4.009480
1550.000000	4.006970
1549.000000	4.017573
1548.000000	3.998040
1547.000000	4.011717
1546.000000	4.006197
1545.000000	4.016321
1544.000000	3.984898
1543.000000	3.991178
1542.000000	3.974826
1541.000000	4.004209
1540.000000	3.969639
1539.000000	3.980965
1538.000000	3.976533
1537.000000	3.980814
1536.000000	3.982123
1535.000000	3.983401
1534.000000	3.960423
1533.000000	3.953236
1532.000000	3.958128
1531.000000	3.978256
1530.000000	3.937016
1529.000000	3.955471
1528.000000	3.948583
1527.000000	3.941102
1526.000000	3.918650
1525.000000	3.946405
1524.000000	3.942638
1523.000000	3.957178
1522.000000	3.906540
1521.000000	3.944034
1520.000000	3.922361
1519.000000	3.928145
1518.000000	3.913547
1517.000000	3.945170
1516.000000	3.932632
1515.000000	3.920934
1514.000000	3.901011
1513.000000	3.912993
1512.000000	3.902011
1511.000000	3.905685
1510.000000	3.897868
1509.000000	3.896597
1508.000000	3.893770
1507.000000	3.911519
1506.000000	3.879080
1505.000000	3.876178
1504.000000	3.876787
1503.000000	3.888041
1502.000000	3.873594
1501.000000	3.891013
1500.000000	3.860741
1499.000000	3.882997
1498.000000	3.853837
1497.000000	3.869901
1496.000000	3.841708
1495.000000	3.856118
1494.000000	3.852973
1493.000000	3.861397
1492.000000	3.832041
1491.000000	3.860050
1490.000000	3.821932
1489.000000	3.844139
1488.000000	3.809680
1487.000000	3.834382
1486.000000	3.826369
1485.000000	3.838195
1484.000000	3.821564
1483.000000	3.809946
1482.000000	3.805769
1481.000000	3.811839
1480.000000	3.804621
1479.000000	3.821165
1478.000000	3.782766
1477.000000	3.820471
1476.000000	3.774644
1475.000000	3.792429
1474.000000	3.787267
1473.000000	3.778340
1472.000000	3.753949
1471.000000	3.789090
1470.000000	3.737689
1469.000000	3.788026
1468.000000	3.738357
1467.000000	3.781962
1466.000000	3.739223
1465.000000	3.759264
1464.000000	3.746854
1463.000000	3.778985
1462.000000	3.711462
1461.000000	3.763931
1460.000000	3.719094
1459.000000	3.750375
1458.000000	3.703804
1457.000000	3.739970
1456.000000	3.739330
1455.000000	3.690616
1454.000000	3.716256
1453.000000	3.721117
1452.000000	3.732734
1451.000000	3.702022
1450.000000	3.730758
1449.000000	3.710412
1448.000000	3.692365
1447.000000	3.680505
1446.000000	3.693114
1445.000000	3.660534
1444.000000	3.707161
1443.000000	3.667569
1442.000000	3.678642
1441.000000	3.675179
1440.000000	3.680969
1439.000000	3.659633
1438.000000	3.663384
1437.000000	3.640177
1436.000000	3.661106
1435.000000	3.646259
1434.000000	3.643998
1433.000000	3.616247
1432.000000	3.633840
1431.000000	3.603690
1430.000000	3.622428
1429.000000	3.606491
1428.000000	3.618615
1427.000000	3.614874
1426.000000	3.621309
1425.000000	3.599022
1424.000000	3.614046
1423.000000	3.578639
1422.000000	3.595876
1421.000000	3.583957
1420.000000	3.590531
1419.000000	3.562312
1418.000000	3.586722
1417.000000	3.573342
1416.000000	3.556072
1415.000000	3.558627
1414.000000	3.566219
1413.000000	3.542338
1412.000000	3.567422
1411.000000	3.546218
1410.000000	3.545179
1409.000000	3.516975
1408.000000	3.538889
1407.000000	3.524236
1406.000000	3.536586
1405.000000	3.525166
1404.000000	3.522623
1403.000000	3.506847
1402.000000	3.521360
1401.000000	3.497194
1400.000000	3.519181
1399.000000	3.505222
1398.000000	3.521976
1397.000000	3.500451
1396.000000	3.510901
1395.000000	3.510163
1394.000000	3.503916
1393.000000	3.507878
1392.000000	3.502107
1391.000000	3.506097
1390.000000	3.499324
1389.000000	3.490330
1388.000000	3.517935
1387.000000	3.491858
1386.000000	3.476290
1385.000000	3.496505
1384.000000	3.515271
1383.000000	3.499551
1382.000000	3.499279
1381.000000	3.495239
1380.000000	3.518798
1379.000000	3.497217
1378.000000	3.501695
1377.000000	3.485085
1376.000000	3.492415
1375.000000	3.490345
1374.000000	3.498028
1373.000000	3.486818
1372.000000	3.498499
1371.000000	3.491750
1370.000000	3.484668
1369.000000	3.472131
1368.000000	3.479050
1367.000000	3.466787
1366.000000	3.473454
1365.000000	3.442748
1364.000000	3.455043
1363.000000	3.451283
1362.000000	3.446081
1361.000000	3.436304
1360.000000	3.436819
1359.000000	3.417834
1358.000000	3.414686
1357.000000	3.412801
1356.000000	3.422260
1355.000000	3.412835
1354.000000	3.410248
1353.000000	3.411364
1352.000000	3.403565
1351.000000	3.395600
1350.000000	3.400293
1349.000000	3.393003
1348.000000	3.389697
1347.000000	3.390263
1346.000000	3.393981
1345.000000	3.387436
1344.000000	3.389518
1343.000000	3.389389
1342.000000	3.403090
1341.000000	3.404337
1340.000000	3.397521
1339.000000	3.387029
1338.000000	3.394290
1337.000000	3.392696
1336.000000	3.387473
1335.000000	3.382995
1334.000000	3.380896
1333.000000	3.378580
1332.000000	3.372782
1331.000000	3.380740
1330.000000	3.377356
1329.000000	3.368588
1328.000000	3.369272
1327.000000	3.366054
1326.000000	3.366470
1325.000000	3.369543
1324.000000	3.354156
1323.000000	3.347906
1322.000000	3.353687
1321.000000	3.357618
1320.000000	3.343510
1319.000000	3.340761
1318.000000	3.341926
1317.000000	3.327504
1316.000000	3.326814
1315.000000	3.336317
1314.000000	3.325025
1313.000000	3.328820
1312.000000	3.321103
1311.000000	3.318756
1310.000000	3.311699
1309.000000	3.301446
1308.000000	3.291526
1307.000000	3.297105
1306.000000	3.294557
1305.000000	3.291436
1304.000000	3.292252
1303.000000	3.299374
1302.000000	3.284027
1301.000000	3.278902
1300.000000	3.272639
1299.000000	3.276205
1298.000000	3.275022
1297.000000	3.273069
1296.000000	3.265065
1295.000000	3.258560
1294.000000	3.260355
1293.000000	3.266324
1292.000000	3.248385
1291.000000	3.261872
1290.000000	3.259360
1289.000000	3.261639
1288.000000	3.244134
1287.000000	3.250642
1286.000000	3.228904
1285.000000	3.236006
1284.000000	3.232081
1283.000000	3.238923
1282.000000	3.234774
1281.000000	3.238155
1280.000000	3.224164
1279.000000	3.228158
1278.000000	3.207246
1277.000000	3.214883
1276.000000	3.216698
1275.000000	3.231124
1274.000000	3.218212
1273.000000	3.208825
1272.000000	3.195702
1271.000000	3.201313
1270.000000	3.190090
1269.000000	3.197927
1268.000000	3.180200
1267.000000	3.199185
1266.000000	3.184424
1265.000000	3.196624
1264.000000	3.183279
1263.000000	3.179295
1262.000000	3.170787
1261.000000	3.173810
1260.000000	3.180824
1259.000000	3.178318
1258.000000	3.151741
1257.000000	3.159026
1256.000000	3.152668
1255.000000	3.151390
1254.000000	3.129283
1253.000000	3.140705
1252.000000	3.144810
1251.000000	3.129192
1250.000000	3.127449
1249.000000	3.136682
1248.000000	3.133247
1247.000000	3.123197
1246.000000	3.105355
1245.000000	3.132053
1244.000000	3.114324
1243.000000	3.113109
1242.000000	3.100438
1241.000000	3.116394
1240.000000	3.102481
1239.000000	3.109548
1238.000000	3.100223
1237.000000	3.101606
1236.000000	3.086080
1235.000000	3.107017
1234.000000	3.090235
1233.000000	3.105779
1232.000000	3.066616
1231.000000	3.095887
1230.000000	3.080068
1229.000000	3.089693
1228.000000	3.065248
1227.000000	3.074010
1226.000000	3.066362
1225.000000	3.087452
1224.000000	3.077629
1223.000000	3.062137
1222.000000	3.063584
1221.000000	3.064562
1220.000000	3.079710
1219.000000	3.042978
1218.000000	3.049100
1217.000000	3.043643
1216.000000	3.057653
1215.000000	3.025598
1214.000000	3.061596
1213.000000	3.014815
1212.000000	3.048510
1211.000000	3.020279
1210.000000	3.029561
1209.000000	3.017010
1208.000000	3.019925
1207.000000	3.006923
1206.000000	3.026041
1205.000000	3.010160
1204.000000	3.027615
1203.000000	2.997120
1202.000000	3.006618
1201.000000	2.990818
1200.000000	2.999684
1199.000000	2.992860
1198.000000	3.013539
1197.000000	2.967097
1196.000000	2.987305
1195.000000	3.020933
1194.000000	2.976395
1193.000000	2.989364
1192.000000	2.993087
1191.000000	2.989712
1190.000000	2.972665
1189.000000	2.968237
1188.000000	2.978548
1187.000000	2.943594
1186.000000	2.980461
1185.000000	2.956472
1184.000000	2.976643
1183.000000	2.944826
1182.000000	2.980139
1181.000000	2.943235
1180.000000	2.973144
1179.000000	2.957593
1178.000000	2.962182
1177.000000	2.925585
1176.000000	2.963328
1175.000000	2.941290
1174.000000	2.940538
1173.000000	2.932680
1172.000000	2.926941
1171.000000	2.929488
1170.000000	2.928710
1169.000000	2.916654
1168.000000	2.924231
1167.000000	2.914030
1166.000000	2.940411
1165.000000	2.912709
1164.000000	2.919322
1163.000000	2.896440
1162.000000	2.917939
1161.000000	2.905670
1160.000000	2.909956
1159.000000	2.899737
1158.000000	2.916272
1157.000000	2.894011
1156.000000	2.899178
1155.000000	2.891980
1154.000000	2.916459
1153.000000	2.880380
1152.000000	2.894855
1151.000000	2.874838
1150.000000	2.894000
1149.000000	2.878691
1148.000000	2.903937
1147.000000	2.879116
1146.000000	2.890250
1145.000000	2.880777
1144.000000	2.882608
1143.000000	2.874032
1142.000000	2.877589
1141.000000	2.867546
1140.000000	2.885041
1139.000000	2.868643
1138.000000	2.872397
1137.000000	2.867660
1136.000000	2.876050
1135.000000	2.860489
1134.000000	2.878452
1133.000000	2.844960
1132.000000	2.864247
1131.000000	2.862323
1130.000000	2.859646
1129.000000	2.840147
1128.000000	2.853016
1127.000000	2.841351
1126.000000	2.851453
1125.000000	2.841838
1124.000000	2.849571
1123.000000	2.833724
1122.000000	2.843143
1121.000000	2.819983
1120.000000	2.842510
1119.000000	2.828512
1118.000000	2.839617
1117.000000	2.826246
1116.000000	2.845201
1115.000000	2.822197
1114.000000	2.829786
1113.000000	2.806531
1112.000000	2.827900
1111.000000	2.815885
1110.000000	2.814850
1109.000000	2.831091
1108.000000	2.830051
1107.000000	2.811965
1106.000000	2.837724
1105.000000	2.815547
1104.000000	2.806008
1103.000000	2.813091
1102.000000	2.822960
1101.000000	2.809467
1100.000000	2.818716
1099.000000	2.811291
1098.000000	2.816028
1097.000000	2.812299
1096.000000	2.815908
1095.000000	2.814322
1094.000000	2.807030
1093.000000	2.797604
1092.000000	2.803773
1091.000000	2.791663
1090.000000	2.802954
1089.000000	2.809341
1088.000000	2.817780
1087.000000	2.800354
1086.000000	2.794402
1085.000000	2.791170
1084.000000	2.809254
1083.000000	2.788339
1082.000000	2.787498
1081.000000	2.791076
1080.000000	2.804521
1079.000000	2.795964
1078.000000	2.776539
1077.000000	2.794163
1076.000000	2.804378
1075.000000	2.791627
1074.000000	2.777004
1073.000000	2.774807
1072.000000	2.773295
1071.000000	2.775821
1070.000000	2.793245
1069.000000	2.780108
1068.000000	2.774873
1067.000000	2.771754
1066.000000	2.783367
1065.000000	2.788533
1064.000000	2.781174
1063.000000	2.772984
1062.000000	2.770984
1061.000000	2.790388
1060.000000	2.788212
1059.000000	2.790448
1058.000000	2.785408
1057.000000	2.780368
1056.000000	2.774866
1055.000000	2.785869
1054.000000	2.790623
1053.000000	2.784456
1052.000000	2.786378
1051.000000	2.779217
1050.000000	2.777471
1049.000000	2.793630
1048.000000	2.770289
1047.000000	2.777967
1046.000000	2.788963
1045.000000	2.810179
1044.000000	2.781665
1043.000000	2.792296
1042.000000	2.789544
1041.000000	2.796204
1040.000000	2.788091
1039.000000	2.794973
1038.000000	2.794344
1037.000000	2.808588
1036.000000	2.781042
1035.000000	2.789969
1034.000000	2.778505
1033.000000	2.797900
1032.000000	2.780610
1031.000000	2.820293
1030.000000	2.797379
1029.000000	2.786966
1028.000000	2.796106
1027.000000	2.821417
1026.000000	2.796839
1025.000000	2.793078
1024.000000	2.796641
1023.000000	2.808428
1022.000000	2.797771
1021.000000	2.806007
1020.000000	2.800175
1019.000000	2.824805
1018.000000	2.805301
1017.000000	2.829629
1016.000000	2.813954
1015.000000	2.825963
1014.000000	2.799346
1013.000000	2.799728
1012.000000	2.815496
1011.000000	2.816945
1010.000000	2.787657
1009.000000	2.840492
1008.000000	2.818000
1007.000000	2.822302
1006.000000	2.828634
1005.000000	2.863721
1004.000000	2.834401
1003.000000	2.828218
1002.000000	2.827819
1001.000000	2.858224
1000.000000	2.832600
999.000000	2.874854
998.000000	2.849971
997.000000	2.858419
996.000000	2.857232
995.000000	2.868631
994.000000	2.820412
993.000000	2.878876
992.000000	2.840695
991.000000	2.869930
990.000000	2.841887
989.000000	2.860389
988.000000	2.854802
987.000000	2.856375
986.000000	2.855442
985.000000	2.881285
984.000000	2.867366
983.000000	2.881241
982.000000	2.856740
981.000000	2.905339
980.000000	2.867011
979.000000	2.929566
978.000000	2.865802
977.000000	2.938138
976.000000	2.864801
975.000000	2.896390
974.000000	2.891829
973.000000	2.912660
972.000000	2.894122
971.000000	2.948207
970.000000	2.929754
969.000000	2.964465
968.000000	2.864658
967.000000	2.938988
966.000000	2.895573
965.000000	2.964263
964.000000	2.927514
963.000000	2.987602
962.000000	2.936268
961.000000	3.001345
960.000000	2.957177
959.000000	3.002642
958.000000	2.930854
957.000000	3.028771
956.000000	2.932763
955.000000	3.043300
954.000000	2.931569
953.000000	3.062031
952.000000	2.994179
951.000000	3.048146
950.000000	2.978847
949.000000	3.009576
948.000000	3.016999
947.000000	3.086956
946.000000	2.985346
945.000000	3.069792
944.000000	3.046720
943.000000	3.077605
942.000000	3.007476
941.000000	3.164118
940.000000	2.999627
939.000000	3.121867
938.000000	3.068928
937.000000	3.127266
936.000000	3.020820
935.000000	3.202059
934.000000	3.058013
933.000000	3.102695
932.000000	3.168228
931.000000	3.089538
930.000000	3.159820
929.000000	3.159420
928.000000	3.117386
927.000000	3.155115
926.000000	3.170512
925.000000	3.257562
924.000000	3.049091
923.000000	3.185310
922.000000	3.175791
921.000000	3.227944
920.000000	3.148775
919.000000	3.263937
918.000000	3.189553
917.000000	3.295973
916.000000	3.210130
915.000000	3.287395
914.000000	3.255369
913.000000	3.269494
912.000000	3.252134
911.000000	3.324630
910.000000	3.356721
909.000000	3.292107
908.000000	3.196380
907.000000	3.440244
906.000000	3.250976
905.000000	3.422208
904.000000	3.294989
903.000000	3.341341
902.000000	3.205345
901.000000	3.434978
900.000000	3.344210
899.000000	3.435152
898.000000	3.397093
897.000000	3.563021
896.000000	3.392386
895.000000	3.452663
894.000000	3.390927
893.000000	3.523796
892.000000	3.378591
891.000000	3.594959
890.000000	3.517495
889.000000	3.520481
888.000000	3.381484
887.000000	3.740017
886.000000	3.369802
885.000000	3.428595
884.000000	3.484678
883.000000	3.715872
882.000000	3.489135
881.000000	3.681430
880.000000	3.607291
879.000000	3.607280
878.000000	3.435752
877.000000	3.609699
876.000000	3.594455
875.000000	3.648863
874.000000	3.569821
873.000000	3.607712
872.000000	3.487657
871.000000	3.679029
870.000000	3.668413
869.000000	3.764488
868.000000	3.759907
867.000000	3.888372
866.000000	3.769871
865.000000	3.792209
864.000000	3.556643
863.000000	3.703306
862.000000	3.896435
861.000000	3.915823
860.000000	3.698765
859.000000	3.524449
858.000000	3.529311
857.000000	3.504897
856.000000	3.516580
855.000000	3.589105
854.000000	3.594582
853.000000	3.558964
852.000000	3.572176
851.000000	3.581421
850.000000	3.619376
849.000000	3.624444
848.000000	3.641735
847.000000	3.648514
846.000000	3.666971
845.000000	3.668765
844.000000	3.664949
843.000000	3.695162
842.000000	3.684284
841.000000	3.717658
840.000000	3.731952
839.000000	3.740204
838.000000	3.747795
837.000000	3.755535
836.000000	3.753408
835.000000	3.756279
834.000000	3.783894
833.000000	3.792077
832.000000	3.797949
831.000000	3.805545
830.000000	3.817137
829.000000	3.828507
828.000000	3.834534
827.000000	3.839948
826.000000	3.856245
825.000000	3.866945
824.000000	3.869238
823.000000	3.878031
822.000000	3.887474
821.000000	3.906688
820.000000	3.912075
819.000000	3.909104
818.000000	3.927295
817.000000	3.945363
816.000000	3.946242
815.000000	3.949305
814.000000	3.957358
813.000000	3.960306
812.000000	3.966956
811.000000	3.978883
810.000000	3.991787
809.000000	3.999381
808.000000	4.007276
807.000000	4.019589
806.000000	4.022494
805.000000	4.025663
804.000000	4.034985
803.000000	4.041669
802.000000	4.049494
801.000000	4.064037
800.000000	4.071485
799.000000	4.080290
798.000000	4.090527
797.000000	4.093601
796.000000	4.097632
795.000000	4.108701
794.000000	4.117179
793.000000	4.120793
792.000000	4.133758
791.000000	4.145037
790.000000	4.150282
789.000000	4.159289
788.000000	4.168022
787.000000	4.178451
786.000000	4.190295
785.000000	4.194153
784.000000	4.198044
783.000000	4.208965
782.000000	4.217257
781.000000	4.227187
780.000000	4.239702
779.000000	4.246790
778.000000	4.255847
777.000000	4.267276
776.000000	4.277205
775.000000	4.279475
774.000000	4.286591
773.000000	4.298856
772.000000	4.308025
771.000000	4.322735
770.000000	4.329808
769.000000	4.340761
768.000000	4.343673
767.000000	4.355401
766.000000	4.368032
765.000000	4.370408
764.000000	4.374098
763.000000	4.393757
762.000000	4.408107
761.000000	4.421499
760.000000	4.425507
759.000000	4.435267
758.000000	4.446163
757.000000	4.453404
756.000000	4.468626
755.000000	4.481869
754.000000	4.487300
753.000000	4.504710
752.000000	4.509682
751.000000	4.514175
750.000000	4.537082
749.000000	4.552256
748.000000	4.552744
747.000000	4.564715
746.000000	4.576598
745.000000	4.591493
744.000000	4.597766
743.000000	4.607964
742.000000	4.625235
741.000000	4.640452
740.000000	4.653736
739.000000	4.668481
738.000000	4.675221
737.000000	4.690981
736.000000	4.696202
735.000000	4.712126
734.000000	4.715855
733.000000	4.732245
732.000000	4.746074
731.000000	4.756714
730.000000	4.772527
729.000000	4.786141
728.000000	4.790391
727.000000	4.806576
726.000000	4.825180
725.000000	4.836842
724.000000	4.843033
723.000000	4.866688
722.000000	4.877994
721.000000	4.890796
720.000000	4.909101
719.000000	4.919611
718.000000	4.930413
717.000000	4.946352
716.000000	4.956249
715.000000	4.969999
714.000000	4.990094
713.000000	5.002427
712.000000	5.014459
711.000000	5.026505
710.000000	5.049010
709.000000	5.057792
708.000000	5.073675
707.000000	5.080461
706.000000	5.094134
705.000000	5.111093
704.000000	5.129197
703.000000	5.139443
702.000000	5.146071
701.000000	5.169302
700.000000	5.175302
699.000000	5.186228
698.000000	5.204326
697.000000	5.227178
696.000000	5.234911
695.000000	5.249417
694.000000	5.261070
693.000000	5.293117
692.000000	5.298365
691.000000	5.308693
690.000000	5.323080
689.000000	5.352138
688.000000	5.363622
687.000000	5.381900
686.000000	5.392858
685.000000	5.414583
684.000000	5.425201
683.000000	5.442399
682.000000	5.458701
681.000000	5.473720
680.000000	5.495189
679.000000	5.508422
678.000000	5.516015
677.000000	5.538168
676.000000	5.554085
675.000000	5.569235
674.000000	5.586775
673.000000	5.601845
672.000000	5.624931
671.000000	5.634744
670.000000	5.655892
669.000000	5.674435
668.000000	5.686041
667.000000	5.703865
666.000000	5.717963
665.000000	5.744415
664.000000	5.751046
663.000000	5.767950
662.000000	5.791275
661.000000	5.806524
660.000000	5.821531
659.000000	5.842481
658.000000	5.855952
657.000000	5.875101
656.000000	5.891252
655.000000	5.907814
654.000000	5.924942
653.000000	5.944714
652.000000	5.961391
651.000000	5.981818
650.000000	5.999055
649.000000	6.012630
648.000000	6.031614
647.000000	6.046291
646.000000	6.067779
645.000000	6.077743
644.000000	6.106819
643.000000	6.117584
642.000000	6.136514
641.000000	6.154021
640.000000	6.173459
639.000000	6.188886
638.000000	6.210826
637.000000	6.225826
636.000000	6.244522
635.000000	6.262436
634.000000	6.277870
633.000000	6.296812
632.000000	6.321425
631.000000	6.332855
630.000000	6.347098
629.000000	6.363304
628.000000	6.381981
627.000000	6.401872
626.000000	6.418741
625.000000	6.440706
624.000000	6.459710
623.000000	6.473337
622.000000	6.494414
621.000000	6.511412
620.000000	6.526436
619.000000	6.544557
618.000000	6.565664
617.000000	6.587389
616.000000	6.600879
615.000000	6.615905
614.000000	6.637222
613.000000	6.650943
612.000000	6.673171
611.000000	6.688838
610.000000	6.705517
609.000000	6.723167
608.000000	6.739508
607.000000	6.755281
606.000000	6.776236
605.000000	6.790876
604.000000	6.812856
603.000000	6.828804
602.000000	6.842889
601.000000	6.864845
600.000000	6.883658
599.000000	6.899893
598.000000	6.917479
597.000000	6.935031
596.000000	6.951003
595.000000	6.968072
594.000000	6.986877
593.000000	7.005107
592.000000	7.020759
591.000000	7.032024
590.000000	7.051587
589.000000	7.070435
588.000000	7.085258
587.000000	7.099390
586.000000	7.113120
585.000000	7.132584
584.000000	7.153120
583.000000	7.161697
582.000000	7.181173
581.000000	7.196405
580.000000	7.212153
579.000000	7.232189
578.000000	7.250176
577.000000	7.262751
576.000000	7.273795
575.000000	7.285993
574.000000	7.303391
573.000000	7.323927
572.000000	7.338642
571.000000	7.350832
570.000000	7.367482
569.000000	7.379707
568.000000	7.401501
567.000000	7.414943
566.000000	7.419373
565.000000	7.433935
564.000000	7.450132
563.000000	7.463906
562.000000	7.479642
561.000000	7.488743
560.000000	7.499926
559.000000	7.514938
558.000000	7.529095
557.000000	7.543662
556.000000	7.554410
555.000000	7.562328
554.000000	7.576908
553.000000	7.591269
552.000000	7.603833
551.000000	7.613954
550.000000	7.624454
549.000000	7.636363
548.000000	7.647887
547.000000	7.656587
546.000000	7.665591
545.000000	7.679454
544.000000	7.687257
543.000000	7.695773
542.000000	7.707199
541.000000	7.716153
540.000000	7.724577
539.000000	7.734270
538.000000	7.743574
537.000000	7.750632
536.000000	7.756496
535.000000	7.765256
534.000000	7.772577
533.000000	7.778123
532.000000	7.783935
531.000000	7.794401
530.000000	7.797848
529.000000	7.804863
528.000000	7.814866
527.000000	7.818274
526.000000	7.824403
525.000000	7.832094
524.000000	7.836983
523.000000	7.842234
522.000000	7.845726
521.000000	7.847646
520.000000	7.850242
519.000000	7.852344
518.000000	7.861273
517.000000	7.870645
516.000000	7.866278
515.000000	7.866107
514.000000	7.868288
513.000000	7.872726
512.000000	7.874886
511.000000	7.875440
510.000000	7.876340
509.000000	7.877789
508.000000	7.877151
507.000000	7.875587
506.000000	7.873544
505.000000	7.876357
504.000000	7.873782
503.000000	7.868874
502.000000	7.871720
501.000000	7.868470
500.000000	7.865980
499.000000	7.858985
498.000000	7.857022
497.000000	7.855199
496.000000	7.848524
495.000000	7.841812
494.000000	7.835906
493.000000	7.831545
492.000000	7.819941
491.000000	7.817321
490.000000	7.801898
489.000000	7.795830
488.000000	7.779145
487.000000	7.767993
486.000000	7.754765
485.000000	7.746775
484.000000	7.735690
483.000000	7.719450
482.000000	7.702381
481.000000	7.689191
480.000000	7.670931
479.000000	7.658685
478.000000	7.648972
477.000000	7.635832
476.000000	7.614004
475.000000	7.603411
474.000000	7.585355
473.000000	7.572111
472.000000	7.556395
471.000000	7.536937
470.000000	7.517799
469.000000	7.510746
468.000000	7.488097
467.000000	7.465958
466.000000	7.447430
465.000000	7.432867
464.000000	7.412585
463.000000	7.392706
462.000000	7.367431
461.000000	7.354059
460.000000	7.327776
459.000000	7.306523
458.000000	7.279166
457.000000	7.259220
456.000000	7.238865
455.000000	7.215971
454.000000	7.185564
453.000000	7.159906
452.000000	7.133061
451.000000	7.107218
450.000000	7.076793
449.000000	7.050741
448.000000	7.014410
447.000000	6.987783
446.000000	6.958993
445.000000	6.929114
444.000000	6.896789
443.000000	6.862551
442.000000	6.826250
441.000000	6.798496
440.000000	6.756646
439.000000	6.718565
438.000000	6.686855
437.000000	6.655171
436.000000	6.613446
435.000000	6.578269
434.000000	6.541568
433.000000	6.505156
432.000000	6.466873
431.000000	6.436552
430.000000	6.385433
429.000000	6.345349
428.000000	6.309507
427.000000	6.273584
426.000000	6.233037
425.000000	6.189384
424.000000	6.151975
423.000000	6.109337
422.000000	6.063845
421.000000	6.022093
420.000000	5.977541
419.000000	5.935801
418.000000	5.888686
417.000000	5.845523
416.000000	5.800388
415.000000	5.758187
414.000000	5.704573
413.000000	5.670260
412.000000	5.620484
411.000000	5.577267
410.000000	5.529439
409.000000	5.480052
408.000000	5.435487
407.000000	5.384895
406.000000	5.335776
405.000000	5.289386
404.000000	5.242169
403.000000	5.193667
402.000000	5.144538
401.000000	5.099642
400.000000	5.054619
399.000000	5.009315
398.000000	4.962047
397.000000	4.912525
396.000000	4.863367
395.000000	4.811447
394.000000	4.763509
393.000000	4.714925
392.000000	4.665350
391.000000	4.613810
390.000000	4.562186
389.000000	4.516210
388.000000	4.466361
387.000000	4.412419
386.000000	4.357462
385.000000	4.315968
384.000000	4.264258
383.000000	4.216518
382.000000	4.167413
381.000000	4.123268
380.000000	4.072716
379.000000	4.025030
378.000000	3.969800
377.000000	3.944801
376.000000	3.925412
375.000000	3.877079
374.000000	3.828903
373.000000	3.786080
372.000000	3.751599
371.000000	3.703503
370.000000	3.664818
369.000000	3.630694
368.000000	3.601559
367.000000	3.552811
366.000000	3.540922
365.000000	3.505233
364.000000	3.468893
363.000000	3.432497
362.000000	3.391857
361.000000	3.362902
360.000000	3.342013
359.000000	3.307287
358.000000	3.283851
357.000000	3.253503
356.000000	3.236020
355.000000	3.225115
354.000000	3.206487
353.000000	3.190564
352.000000	3.172158
351.000000	3.165738
350.000000	3.150686
349.000000	3.140278
348.000000	3.125870
347.000000	3.117843
346.000000	3.115936
345.000000	3.115652
344.000000	3.128086
343.000000	3.127028
342.000000	3.128942
341.000000	3.139388
340.000000	3.143234
339.000000	3.145919
338.000000	3.163345
337.000000	3.197876
336.000000	3.224187
335.000000	3.241176
334.000000	3.283855
333.000000	3.311879
332.000000	3.340129
331.000000	3.375488
330.000000	3.430216
329.000000	3.472730
328.000000	3.543197
327.000000	3.598889
326.000000	3.643341
325.000000	3.701657
324.000000	3.755071
323.000000	3.822024
322.000000	3.907838
321.000000	3.986462
320.000000	4.053107
319.000000	4.109806
318.000000	4.166467
317.000000	4.218654
316.000000	4.296969
315.000000	4.376495
314.000000	4.460262
313.000000	4.537176
312.000000	4.615265
311.000000	4.693537
310.000000	4.759453
309.000000	4.824706
308.000000	4.890455
307.000000	4.944798
306.000000	4.992960
305.000000	5.035184
304.000000	5.063818
303.000000	5.091660
302.000000	5.114557
301.000000	5.127427
300.000000	5.126069
