PE UV       SUBTECH     SPECTRUM    ASCII       PEDS        4.00        
   -1
Sample721.Sample.asc
11/12/22
12:37:56.00
11/12/22
12:37:56.00
Analyst
177 Sol Pluronic
300.000000
1
Lambda 950
950N6032301
PerkinElmer UV WinLab 5.1.5.0637 / 1.61.00 Lambda 900

0
0
3350/servo 860.8/2
0
0
UV/VIS
1
1
1
RBeamAtt,SBeamAtt,150mm sphere / downward view
0
0
0
0
Program
Program
3350/servo 860.8/2
3350/1 860.8/1
3350/1 860.8/1
0
1
 
 
 
0
 
860.8
319.2
860.8
Front
100
 
S:100 R:100
 
0
0
0
 
0
 
 
 
0
 
 
0
0
0
0
0
 
 
 
 
0
0
#HDR
-1
-1
#GR
nm
%T
1.0
0.0
2500.000000
-1.000000
2201
8
97.277016
38.049050
#DATA
2500.000000	84.750487
2499.000000	82.338094
2498.000000	81.844904
2497.000000	83.229730
2496.000000	83.354928
2495.000000	83.496572
2494.000000	82.944631
2493.000000	83.407645
2492.000000	83.731564
2491.000000	84.171572
2490.000000	83.424192
2489.000000	83.408668
2488.000000	83.730679
2487.000000	83.952800
2486.000000	82.926339
2485.000000	83.417367
2484.000000	83.966480
2483.000000	83.307518
2482.000000	84.136641
2481.000000	84.083606
2480.000000	83.741574
2479.000000	83.575069
2478.000000	83.844830
2477.000000	83.929579
2476.000000	84.769049
2475.000000	84.642855
2474.000000	84.170894
2473.000000	83.963871
2472.000000	83.642470
2471.000000	83.760253
2470.000000	83.761685
2469.000000	84.178828
2468.000000	84.557020
2467.000000	84.681145
2466.000000	84.268035
2465.000000	84.879991
2464.000000	84.256940
2463.000000	84.693309
2462.000000	84.367262
2461.000000	84.656080
2460.000000	84.041403
2459.000000	84.259443
2458.000000	84.419530
2457.000000	84.911407
2456.000000	84.911649
2455.000000	84.873529
2454.000000	84.421498
2453.000000	84.858722
2452.000000	84.945071
2451.000000	84.884161
2450.000000	84.171104
2449.000000	84.475763
2448.000000	84.142411
2447.000000	84.144475
2446.000000	85.361095
2445.000000	85.412702
2444.000000	85.015799
2443.000000	85.249766
2442.000000	84.587997
2441.000000	84.718944
2440.000000	85.125994
2439.000000	84.962111
2438.000000	84.306643
2437.000000	85.365517
2436.000000	84.941575
2435.000000	85.073992
2434.000000	85.105411
2433.000000	84.618123
2432.000000	85.040847
2431.000000	85.399128
2430.000000	84.704519
2429.000000	84.986280
2428.000000	85.165600
2427.000000	85.012111
2426.000000	85.250362
2425.000000	85.308859
2424.000000	85.201178
2423.000000	85.462080
2422.000000	85.248419
2421.000000	85.045458
2420.000000	84.785626
2419.000000	84.742369
2418.000000	84.751085
2417.000000	85.106882
2416.000000	85.030970
2415.000000	84.986873
2414.000000	85.329289
2413.000000	85.364974
2412.000000	85.361778
2411.000000	85.358185
2410.000000	85.289847
2409.000000	85.674591
2408.000000	84.919099
2407.000000	85.050988
2406.000000	85.439327
2405.000000	85.551604
2404.000000	84.935260
2403.000000	85.293335
2402.000000	85.330504
2401.000000	85.170736
2400.000000	85.532192
2399.000000	86.058594
2398.000000	86.034059
2397.000000	85.836655
2396.000000	85.842238
2395.000000	85.419394
2394.000000	85.409520
2393.000000	86.209418
2392.000000	86.690877
2391.000000	86.204953
2390.000000	86.053126
2389.000000	86.453738
2388.000000	86.631853
2387.000000	86.557953
2386.000000	86.866407
2385.000000	87.065708
2384.000000	86.440791
2383.000000	86.686741
2382.000000	86.888501
2381.000000	86.899475
2380.000000	87.267133
2379.000000	87.268153
2378.000000	87.193832
2377.000000	87.422721
2376.000000	87.721753
2375.000000	87.990626
2374.000000	87.601794
2373.000000	87.917022
2372.000000	88.479190
2371.000000	88.010366
2370.000000	87.855439
2369.000000	88.221421
2368.000000	88.324384
2367.000000	88.238571
2366.000000	88.574552
2365.000000	88.823970
2364.000000	88.647959
2363.000000	88.576983
2362.000000	88.570703
2361.000000	88.819182
2360.000000	89.122151
2359.000000	89.037904
2358.000000	88.875181
2357.000000	89.328135
2356.000000	89.478645
2355.000000	89.204677
2354.000000	89.436476
2353.000000	89.488620
2352.000000	89.188574
2351.000000	89.163668
2350.000000	89.352018
2349.000000	89.792298
2348.000000	90.055403
2347.000000	89.852049
2346.000000	89.547955
2345.000000	89.738560
2344.000000	89.847166
2343.000000	89.626032
2342.000000	89.729233
2341.000000	90.143668
2340.000000	90.146268
2339.000000	90.127305
2338.000000	90.083840
2337.000000	89.926315
2336.000000	90.080154
2335.000000	90.186579
2334.000000	90.091162
2333.000000	89.850989
2332.000000	89.954404
2331.000000	90.456577
2330.000000	90.413152
2329.000000	90.101959
2328.000000	90.137612
2327.000000	90.114458
2326.000000	90.217586
2325.000000	90.356101
2324.000000	90.084233
2323.000000	90.168899
2322.000000	90.212879
2321.000000	90.217665
2320.000000	90.004441
2319.000000	90.095760
2318.000000	90.429760
2317.000000	90.423938
2316.000000	90.389726
2315.000000	90.358087
2314.000000	90.118720
2313.000000	90.085830
2312.000000	90.216377
2311.000000	90.345940
2310.000000	90.551065
2309.000000	90.469415
2308.000000	90.257646
2307.000000	90.217064
2306.000000	90.362130
2305.000000	90.464028
2304.000000	90.400214
2303.000000	90.263458
2302.000000	90.539527
2301.000000	90.366696
2300.000000	90.283265
2299.000000	90.329906
2298.000000	90.397649
2297.000000	90.062183
2296.000000	90.267007
2295.000000	90.172426
2294.000000	90.249435
2293.000000	90.284552
2292.000000	90.096835
2291.000000	90.109519
2290.000000	90.263491
2289.000000	90.209170
2288.000000	90.257070
2287.000000	90.426283
2286.000000	90.222120
2285.000000	90.017820
2284.000000	90.304261
2283.000000	90.317957
2282.000000	90.155495
2281.000000	90.121664
2280.000000	90.013417
2279.000000	90.025053
2278.000000	90.255437
2277.000000	90.054390
2276.000000	90.166311
2275.000000	90.225785
2274.000000	90.274817
2273.000000	89.774291
2272.000000	89.696687
2271.000000	89.813301
2270.000000	89.862828
2269.000000	89.654036
2268.000000	89.638632
2267.000000	89.617183
2266.000000	90.110403
2265.000000	89.569208
2264.000000	89.555162
2263.000000	89.687990
2262.000000	89.840067
2261.000000	89.544636
2260.000000	89.761279
2259.000000	89.538357
2258.000000	89.558080
2257.000000	89.653572
2256.000000	89.447522
2255.000000	89.654442
2254.000000	89.397142
2253.000000	89.498809
2252.000000	89.672098
2251.000000	89.268751
2250.000000	89.693507
2249.000000	89.282061
2248.000000	89.155569
2247.000000	89.636900
2246.000000	89.472592
2245.000000	89.240235
2244.000000	89.360657
2243.000000	89.252606
2242.000000	89.101860
2241.000000	89.313025
2240.000000	89.186225
2239.000000	89.061524
2238.000000	88.912598
2237.000000	88.913362
2236.000000	88.671522
2235.000000	88.577049
2234.000000	88.996156
2233.000000	88.555727
2232.000000	88.515104
2231.000000	88.637737
2230.000000	88.416429
2229.000000	88.481505
2228.000000	88.662680
2227.000000	88.316514
2226.000000	88.234716
2225.000000	88.495626
2224.000000	88.240489
2223.000000	88.109694
2222.000000	88.196263
2221.000000	88.325372
2220.000000	88.292627
2219.000000	88.151520
2218.000000	87.835519
2217.000000	88.156789
2216.000000	88.301597
2215.000000	88.244685
2214.000000	88.337609
2213.000000	88.212453
2212.000000	88.193693
2211.000000	88.169083
2210.000000	88.115750
2209.000000	88.318532
2208.000000	88.404168
2207.000000	88.409334
2206.000000	88.573919
2205.000000	88.582830
2204.000000	88.549514
2203.000000	88.605665
2202.000000	88.965441
2201.000000	88.881313
2200.000000	89.043616
2199.000000	88.791965
2198.000000	89.152079
2197.000000	89.073325
2196.000000	89.448597
2195.000000	89.384379
2194.000000	89.380718
2193.000000	89.265587
2192.000000	89.580353
2191.000000	89.652897
2190.000000	89.746723
2189.000000	89.588268
2188.000000	89.601987
2187.000000	89.737447
2186.000000	89.844963
2185.000000	90.052555
2184.000000	90.219749
2183.000000	90.257088
2182.000000	90.072348
2181.000000	90.136777
2180.000000	90.105970
2179.000000	90.316952
2178.000000	90.262211
2177.000000	90.153630
2176.000000	90.319966
2175.000000	90.427708
2174.000000	90.462612
2173.000000	90.632065
2172.000000	90.569334
2171.000000	90.563666
2170.000000	90.296775
2169.000000	90.442430
2168.000000	90.391240
2167.000000	90.566989
2166.000000	90.745256
2165.000000	90.794135
2164.000000	90.822211
2163.000000	90.708949
2162.000000	90.804384
2161.000000	90.725255
2160.000000	90.680376
2159.000000	90.842426
2158.000000	90.707511
2157.000000	90.629008
2156.000000	90.746394
2155.000000	90.858400
2154.000000	90.768235
2153.000000	90.923350
2152.000000	91.011310
2151.000000	90.878917
2150.000000	90.953263
2149.000000	91.085275
2148.000000	91.040969
2147.000000	91.136991
2146.000000	90.936141
2145.000000	91.054330
2144.000000	91.224079
2143.000000	91.354037
2142.000000	91.458599
2141.000000	91.630038
2140.000000	91.493474
2139.000000	91.397775
2138.000000	91.542955
2137.000000	91.603986
2136.000000	91.718166
2135.000000	91.933389
2134.000000	91.938287
2133.000000	92.047235
2132.000000	92.001904
2131.000000	91.993162
2130.000000	92.010989
2129.000000	92.061180
2128.000000	92.071926
2127.000000	91.977399
2126.000000	92.182859
2125.000000	92.325927
2124.000000	92.202311
2123.000000	92.306721
2122.000000	92.436483
2121.000000	92.354863
2120.000000	92.399149
2119.000000	92.490606
2118.000000	92.418179
2117.000000	92.462857
2116.000000	92.592860
2115.000000	92.624606
2114.000000	92.649275
2113.000000	92.795241
2112.000000	92.996302
2111.000000	93.052898
2110.000000	93.097862
2109.000000	93.191282
2108.000000	93.258127
2107.000000	93.227813
2106.000000	93.182353
2105.000000	93.150372
2104.000000	93.255923
2103.000000	93.289616
2102.000000	93.335365
2101.000000	93.387730
2100.000000	93.400716
2099.000000	93.455161
2098.000000	93.477403
2097.000000	93.621736
2096.000000	93.738642
2095.000000	93.571378
2094.000000	93.543203
2093.000000	93.603793
2092.000000	93.517819
2091.000000	93.518685
2090.000000	93.640618
2089.000000	93.606585
2088.000000	93.533388
2087.000000	93.538547
2086.000000	93.690306
2085.000000	93.724677
2084.000000	93.762209
2083.000000	93.821018
2082.000000	93.753470
2081.000000	93.763318
2080.000000	93.804505
2079.000000	93.781573
2078.000000	93.621689
2077.000000	93.688064
2076.000000	93.836783
2075.000000	93.762733
2074.000000	93.801634
2073.000000	93.833949
2072.000000	93.696853
2071.000000	93.727944
2070.000000	93.840722
2069.000000	93.897421
2068.000000	93.846005
2067.000000	93.885548
2066.000000	93.881036
2065.000000	93.858022
2064.000000	93.834638
2063.000000	93.881629
2062.000000	94.001152
2061.000000	93.891451
2060.000000	93.806815
2059.000000	93.948757
2058.000000	94.052572
2057.000000	94.077854
2056.000000	94.134699
2055.000000	94.062617
2054.000000	94.145260
2053.000000	94.116014
2052.000000	94.055772
2051.000000	94.169968
2050.000000	94.005393
2049.000000	93.929989
2048.000000	93.970650
2047.000000	94.001088
2046.000000	93.882801
2045.000000	93.917283
2044.000000	93.963870
2043.000000	93.874575
2042.000000	93.955148
2041.000000	93.959864
2040.000000	94.005999
2039.000000	93.898339
2038.000000	93.918885
2037.000000	94.016829
2036.000000	94.026001
2035.000000	93.984634
2034.000000	93.959131
2033.000000	94.009771
2032.000000	93.941679
2031.000000	93.890041
2030.000000	94.063730
2029.000000	93.954299
2028.000000	93.971828
2027.000000	93.994372
2026.000000	94.053047
2025.000000	94.032353
2024.000000	94.063746
2023.000000	93.898830
2022.000000	93.966256
2021.000000	93.956907
2020.000000	93.983190
2019.000000	93.939789
2018.000000	93.930381
2017.000000	93.991683
2016.000000	93.980985
2015.000000	93.962434
2014.000000	93.971264
2013.000000	93.958937
2012.000000	93.983169
2011.000000	93.987898
2010.000000	93.913459
2009.000000	93.908205
2008.000000	93.903205
2007.000000	93.906386
2006.000000	93.940777
2005.000000	93.966212
2004.000000	94.004142
2003.000000	93.985988
2002.000000	93.982705
2001.000000	94.040086
2000.000000	94.064096
1999.000000	94.093426
1998.000000	93.992985
1997.000000	94.061508
1996.000000	93.929235
1995.000000	93.981286
1994.000000	94.011275
1993.000000	94.041584
1992.000000	94.071657
1991.000000	94.147147
1990.000000	94.101931
1989.000000	94.000045
1988.000000	94.092146
1987.000000	94.081829
1986.000000	94.123708
1985.000000	94.130623
1984.000000	94.141330
1983.000000	94.146300
1982.000000	94.138373
1981.000000	94.211384
1980.000000	94.122042
1979.000000	94.113191
1978.000000	94.205793
1977.000000	94.186826
1976.000000	94.244406
1975.000000	94.249068
1974.000000	94.266701
1973.000000	94.370777
1972.000000	94.248355
1971.000000	94.305122
1970.000000	94.372371
1969.000000	94.313947
1968.000000	94.449643
1967.000000	94.406688
1966.000000	94.398786
1965.000000	94.472911
1964.000000	94.492166
1963.000000	94.419477
1962.000000	94.511085
1961.000000	94.510789
1960.000000	94.527478
1959.000000	94.458937
1958.000000	94.507042
1957.000000	94.532392
1956.000000	94.602387
1955.000000	94.663016
1954.000000	94.578921
1953.000000	94.564357
1952.000000	94.632302
1951.000000	94.612700
1950.000000	94.684187
1949.000000	94.658259
1948.000000	94.701657
1947.000000	94.676615
1946.000000	94.756223
1945.000000	94.681265
1944.000000	94.708501
1943.000000	94.701617
1942.000000	94.774235
1941.000000	94.694907
1940.000000	94.750568
1939.000000	94.721994
1938.000000	94.736245
1937.000000	94.802480
1936.000000	94.816211
1935.000000	94.837642
1934.000000	94.832476
1933.000000	94.778786
1932.000000	94.793634
1931.000000	94.804856
1930.000000	94.765676
1929.000000	94.847215
1928.000000	94.806714
1927.000000	94.717524
1926.000000	94.771729
1925.000000	94.863330
1924.000000	94.843219
1923.000000	94.910304
1922.000000	94.861870
1921.000000	94.917001
1920.000000	94.835085
1919.000000	94.911757
1918.000000	94.964848
1917.000000	94.866494
1916.000000	94.941970
1915.000000	94.888622
1914.000000	94.927917
1913.000000	94.856416
1912.000000	94.847897
1911.000000	94.884927
1910.000000	94.859294
1909.000000	94.839460
1908.000000	94.896143
1907.000000	94.914148
1906.000000	94.876827
1905.000000	94.981896
1904.000000	94.951571
1903.000000	94.951847
1902.000000	94.902686
1901.000000	94.926880
1900.000000	95.002285
1899.000000	94.981801
1898.000000	94.907653
1897.000000	94.883771
1896.000000	94.937862
1895.000000	94.948330
1894.000000	94.997313
1893.000000	95.037747
1892.000000	95.013625
1891.000000	94.970592
1890.000000	94.964036
1889.000000	94.951149
1888.000000	94.976733
1887.000000	95.041686
1886.000000	95.017566
1885.000000	94.988263
1884.000000	94.997237
1883.000000	94.963763
1882.000000	95.002621
1881.000000	94.978650
1880.000000	95.008549
1879.000000	94.990002
1878.000000	94.939465
1877.000000	95.028950
1876.000000	95.106374
1875.000000	94.998860
1874.000000	94.940864
1873.000000	94.986134
1872.000000	95.030003
1871.000000	95.026168
1870.000000	95.025359
1869.000000	95.046116
1868.000000	95.034627
1867.000000	95.017569
1866.000000	95.065236
1865.000000	95.080024
1864.000000	95.100366
1863.000000	95.119930
1862.000000	95.112372
1861.000000	95.181489
1860.000000	95.193767
1859.000000	95.156551
1858.000000	95.155930
1857.000000	95.175702
1856.000000	95.100681
1855.000000	95.030323
1854.000000	95.068790
1853.000000	95.066782
1852.000000	95.117852
1851.000000	95.212828
1850.000000	95.254508
1849.000000	95.218721
1848.000000	95.123796
1847.000000	95.095949
1846.000000	95.047955
1845.000000	95.039614
1844.000000	95.071259
1843.000000	95.059800
1842.000000	95.088718
1841.000000	95.114962
1840.000000	95.106980
1839.000000	95.115020
1838.000000	95.159819
1837.000000	95.169025
1836.000000	95.097517
1835.000000	95.063213
1834.000000	95.077255
1833.000000	95.093699
1832.000000	95.116469
1831.000000	95.159188
1830.000000	95.144718
1829.000000	95.114149
1828.000000	95.129373
1827.000000	95.143098
1826.000000	95.170950
1825.000000	95.168906
1824.000000	95.150681
1823.000000	95.157758
1822.000000	95.148976
1821.000000	95.143291
1820.000000	95.159904
1819.000000	95.171418
1818.000000	95.168671
1817.000000	95.171256
1816.000000	95.179355
1815.000000	95.186124
1814.000000	95.168788
1813.000000	95.149519
1812.000000	95.189685
1811.000000	95.202877
1810.000000	95.199728
1809.000000	95.206433
1808.000000	95.170284
1807.000000	95.178411
1806.000000	95.202304
1805.000000	95.177698
1804.000000	95.159319
1803.000000	95.163310
1802.000000	95.175826
1801.000000	95.188053
1800.000000	95.237446
1799.000000	95.260078
1798.000000	95.201598
1797.000000	95.206282
1796.000000	95.219839
1795.000000	95.247979
1794.000000	95.243104
1793.000000	95.237253
1792.000000	95.257926
1791.000000	95.245199
1790.000000	95.247207
1789.000000	95.218384
1788.000000	95.228566
1787.000000	95.257418
1786.000000	95.259758
1785.000000	95.219436
1784.000000	95.234458
1783.000000	95.227883
1782.000000	95.254570
1781.000000	95.219896
1780.000000	95.237340
1779.000000	95.257849
1778.000000	95.258840
1777.000000	95.294344
1776.000000	95.282200
1775.000000	95.226453
1774.000000	95.261116
1773.000000	95.284723
1772.000000	95.260289
1771.000000	95.293107
1770.000000	95.310117
1769.000000	95.307035
1768.000000	95.312222
1767.000000	95.288237
1766.000000	95.275890
1765.000000	95.307518
1764.000000	95.286490
1763.000000	95.302749
1762.000000	95.231172
1761.000000	95.294400
1760.000000	95.282462
1759.000000	95.293334
1758.000000	95.314721
1757.000000	95.317371
1756.000000	95.314913
1755.000000	95.320902
1754.000000	95.285382
1753.000000	95.353435
1752.000000	95.310093
1751.000000	95.315247
1750.000000	95.333750
1749.000000	95.351062
1748.000000	95.301827
1747.000000	95.327340
1746.000000	95.371118
1745.000000	95.345881
1744.000000	95.309163
1743.000000	95.375454
1742.000000	95.360838
1741.000000	95.323419
1740.000000	95.309865
1739.000000	95.361195
1738.000000	95.313774
1737.000000	95.379257
1736.000000	95.363838
1735.000000	95.361001
1734.000000	95.342811
1733.000000	95.345395
1732.000000	95.383410
1731.000000	95.393329
1730.000000	95.387868
1729.000000	95.424091
1728.000000	95.365397
1727.000000	95.425778
1726.000000	95.382593
1725.000000	95.409648
1724.000000	95.363461
1723.000000	95.385623
1722.000000	95.422896
1721.000000	95.411891
1720.000000	95.375087
1719.000000	95.351167
1718.000000	95.448756
1717.000000	95.413129
1716.000000	95.386828
1715.000000	95.355847
1714.000000	95.429883
1713.000000	95.431935
1712.000000	95.433943
1711.000000	95.389817
1710.000000	95.401414
1709.000000	95.408283
1708.000000	95.429095
1707.000000	95.430618
1706.000000	95.413165
1705.000000	95.411030
1704.000000	95.450185
1703.000000	95.472942
1702.000000	95.476877
1701.000000	95.443948
1700.000000	95.480536
1699.000000	95.437234
1698.000000	95.450758
1697.000000	95.495746
1696.000000	95.449691
1695.000000	95.447603
1694.000000	95.442624
1693.000000	95.444829
1692.000000	95.431276
1691.000000	95.481060
1690.000000	95.465828
1689.000000	95.464114
1688.000000	95.505171
1687.000000	95.458138
1686.000000	95.491287
1685.000000	95.497478
1684.000000	95.457040
1683.000000	95.485485
1682.000000	95.476884
1681.000000	95.487106
1680.000000	95.509488
1679.000000	95.500703
1678.000000	95.510250
1677.000000	95.524375
1676.000000	95.503911
1675.000000	95.503991
1674.000000	95.506817
1673.000000	95.505648
1672.000000	95.533450
1671.000000	95.548449
1670.000000	95.547092
1669.000000	95.758285
1668.000000	95.735014
1667.000000	95.664886
1666.000000	95.499693
1665.000000	95.516118
1664.000000	95.519231
1663.000000	95.546157
1662.000000	95.523748
1661.000000	95.548565
1660.000000	95.544076
1659.000000	95.529572
1658.000000	95.556097
1657.000000	95.541133
1656.000000	95.532937
1655.000000	95.518016
1654.000000	95.536264
1653.000000	95.560484
1652.000000	95.574294
1651.000000	95.551815
1650.000000	95.556890
1649.000000	95.563082
1648.000000	95.557069
1647.000000	95.541809
1646.000000	95.539243
1645.000000	95.570165
1644.000000	95.556470
1643.000000	95.571252
1642.000000	95.565695
1641.000000	95.572588
1640.000000	95.590844
1639.000000	95.595451
1638.000000	95.581546
1637.000000	95.621709
1636.000000	95.630316
1635.000000	95.609420
1634.000000	95.589703
1633.000000	95.626680
1632.000000	95.620185
1631.000000	95.589167
1630.000000	95.585101
1629.000000	95.577868
1628.000000	95.592352
1627.000000	95.611760
1626.000000	95.613088
1625.000000	95.627464
1624.000000	95.628326
1623.000000	95.616818
1622.000000	95.604271
1621.000000	95.630077
1620.000000	95.641503
1619.000000	95.655355
1618.000000	95.633717
1617.000000	95.629338
1616.000000	95.648795
1615.000000	95.628344
1614.000000	95.627568
1613.000000	95.638071
1612.000000	95.645383
1611.000000	95.652228
1610.000000	95.655317
1609.000000	95.645182
1608.000000	95.657575
1607.000000	95.680679
1606.000000	95.688014
1605.000000	95.694115
1604.000000	95.677438
1603.000000	95.660126
1602.000000	95.687903
1601.000000	95.692624
1600.000000	95.672047
1599.000000	95.680239
1598.000000	95.691699
1597.000000	95.679871
1596.000000	95.680267
1595.000000	95.711046
1594.000000	95.716062
1593.000000	95.682679
1592.000000	95.685156
1591.000000	95.705110
1590.000000	95.711786
1589.000000	95.705781
1588.000000	95.686224
1587.000000	95.706482
1586.000000	95.724749
1585.000000	95.730058
1584.000000	95.732918
1583.000000	95.732811
1582.000000	95.723695
1581.000000	95.721886
1580.000000	95.729914
1579.000000	95.722347
1578.000000	95.733735
1577.000000	95.726081
1576.000000	95.721931
1575.000000	95.736950
1574.000000	95.735769
1573.000000	95.736779
1572.000000	95.729751
1571.000000	95.727533
1570.000000	95.745584
1569.000000	95.761249
1568.000000	95.759672
1567.000000	95.743862
1566.000000	95.740855
1565.000000	95.738897
1564.000000	95.754025
1563.000000	95.749932
1562.000000	95.753103
1561.000000	95.773559
1560.000000	95.771383
1559.000000	95.776811
1558.000000	95.770203
1557.000000	95.770350
1556.000000	95.774069
1555.000000	95.768851
1554.000000	95.788499
1553.000000	95.791031
1552.000000	95.767915
1551.000000	95.757480
1550.000000	95.769374
1549.000000	95.775338
1548.000000	95.769711
1547.000000	95.748535
1546.000000	95.766401
1545.000000	95.776770
1544.000000	95.784156
1543.000000	95.797121
1542.000000	95.773291
1541.000000	95.779647
1540.000000	95.792751
1539.000000	95.796313
1538.000000	95.801990
1537.000000	95.785449
1536.000000	95.781830
1535.000000	95.783606
1534.000000	95.807373
1533.000000	95.796361
1532.000000	95.799255
1531.000000	95.800412
1530.000000	95.811584
1529.000000	95.808150
1528.000000	95.809776
1527.000000	95.810819
1526.000000	95.809306
1525.000000	95.800984
1524.000000	95.805291
1523.000000	95.796320
1522.000000	95.785088
1521.000000	95.798366
1520.000000	95.788630
1519.000000	95.804049
1518.000000	95.784723
1517.000000	95.790326
1516.000000	95.798255
1515.000000	95.810941
1514.000000	95.814124
1513.000000	95.815925
1512.000000	95.797475
1511.000000	95.799197
1510.000000	95.808477
1509.000000	95.783294
1508.000000	95.786266
1507.000000	95.795057
1506.000000	95.806715
1505.000000	95.795970
1504.000000	95.805688
1503.000000	95.801885
1502.000000	95.818702
1501.000000	95.803080
1500.000000	95.810883
1499.000000	95.787507
1498.000000	95.784217
1497.000000	95.810913
1496.000000	95.814318
1495.000000	95.798336
1494.000000	95.794826
1493.000000	95.785291
1492.000000	95.796844
1491.000000	95.802496
1490.000000	95.786328
1489.000000	95.788316
1488.000000	95.794707
1487.000000	95.783470
1486.000000	95.782757
1485.000000	95.796091
1484.000000	95.774497
1483.000000	95.789111
1482.000000	95.768138
1481.000000	95.755513
1480.000000	95.759423
1479.000000	95.750880
1478.000000	95.775911
1477.000000	95.754732
1476.000000	95.759945
1475.000000	95.737591
1474.000000	95.753959
1473.000000	95.726185
1472.000000	95.745628
1471.000000	95.733394
1470.000000	95.733212
1469.000000	95.741818
1468.000000	95.788337
1467.000000	95.777582
1466.000000	95.782158
1465.000000	95.788426
1464.000000	95.784858
1463.000000	95.759680
1462.000000	95.741205
1461.000000	95.729724
1460.000000	95.696137
1459.000000	95.734771
1458.000000	95.709403
1457.000000	95.710398
1456.000000	95.719364
1455.000000	95.681284
1454.000000	95.675536
1453.000000	95.662899
1452.000000	95.663409
1451.000000	95.635297
1450.000000	95.622670
1449.000000	95.615678
1448.000000	95.558053
1447.000000	95.497238
1446.000000	95.421751
1445.000000	95.383290
1444.000000	95.365318
1443.000000	95.333783
1442.000000	95.321154
1441.000000	95.284539
1440.000000	95.295294
1439.000000	95.249044
1438.000000	95.213734
1437.000000	95.215037
1436.000000	95.189426
1435.000000	95.258384
1434.000000	95.329393
1433.000000	95.294032
1432.000000	95.267589
1431.000000	95.258181
1430.000000	95.224752
1429.000000	95.181627
1428.000000	95.164870
1427.000000	95.106426
1426.000000	95.085445
1425.000000	95.043968
1424.000000	95.022211
1423.000000	94.967372
1422.000000	94.929259
1421.000000	94.891893
1420.000000	94.850260
1419.000000	94.838380
1418.000000	94.792285
1417.000000	94.749419
1416.000000	94.725553
1415.000000	94.683150
1414.000000	94.645826
1413.000000	94.622525
1412.000000	94.580612
1411.000000	94.579764
1410.000000	94.539291
1409.000000	94.544221
1408.000000	94.508742
1407.000000	94.494145
1406.000000	94.494222
1405.000000	94.514200
1404.000000	94.496421
1403.000000	94.510458
1402.000000	94.544241
1401.000000	94.560262
1400.000000	94.559819
1399.000000	94.510202
1398.000000	94.457983
1397.000000	94.505273
1396.000000	94.554288
1395.000000	94.579872
1394.000000	94.661564
1393.000000	94.723919
1392.000000	94.777930
1391.000000	94.852403
1390.000000	94.924559
1389.000000	94.998141
1388.000000	95.061023
1387.000000	95.117694
1386.000000	95.196891
1385.000000	95.278149
1384.000000	95.328558
1383.000000	95.409290
1382.000000	95.480258
1381.000000	95.526736
1380.000000	95.603801
1379.000000	95.658078
1378.000000	95.708930
1377.000000	95.747111
1376.000000	95.792206
1375.000000	95.826759
1374.000000	95.850348
1373.000000	95.901752
1372.000000	95.948514
1371.000000	95.991902
1370.000000	95.984836
1369.000000	95.986324
1368.000000	96.094270
1367.000000	96.150442
1366.000000	96.167412
1365.000000	96.185839
1364.000000	96.211886
1363.000000	96.255057
1362.000000	96.303967
1361.000000	96.314476
1360.000000	96.328312
1359.000000	96.333783
1358.000000	96.324013
1357.000000	96.267989
1356.000000	96.235871
1355.000000	96.243177
1354.000000	96.247661
1353.000000	96.252878
1352.000000	96.261173
1351.000000	96.269804
1350.000000	96.267739
1349.000000	96.268573
1348.000000	96.268938
1347.000000	96.266813
1346.000000	96.269306
1345.000000	96.276980
1344.000000	96.294016
1343.000000	96.301556
1342.000000	96.300502
1341.000000	96.303752
1340.000000	96.306374
1339.000000	96.304142
1338.000000	96.304277
1337.000000	96.301766
1336.000000	96.305016
1335.000000	96.315366
1334.000000	96.316797
1333.000000	96.323062
1332.000000	96.326733
1331.000000	96.321849
1330.000000	96.331512
1329.000000	96.332889
1328.000000	96.326196
1327.000000	96.334411
1326.000000	96.341652
1325.000000	96.358727
1324.000000	96.347138
1323.000000	96.339062
1322.000000	96.357654
1321.000000	96.366927
1320.000000	96.361458
1319.000000	96.350699
1318.000000	96.356480
1317.000000	96.363744
1316.000000	96.365304
1315.000000	96.364276
1314.000000	96.369815
1313.000000	96.375075
1312.000000	96.379296
1311.000000	96.386319
1310.000000	96.385950
1309.000000	96.385982
1308.000000	96.394163
1307.000000	96.395837
1306.000000	96.398761
1305.000000	96.390699
1304.000000	96.391123
1303.000000	96.408546
1302.000000	96.412594
1301.000000	96.409832
1300.000000	96.413298
1299.000000	96.420225
1298.000000	96.430207
1297.000000	96.423358
1296.000000	96.422767
1295.000000	96.429560
1294.000000	96.438854
1293.000000	96.429608
1292.000000	96.427333
1291.000000	96.436277
1290.000000	96.440787
1289.000000	96.433533
1288.000000	96.440759
1287.000000	96.455654
1286.000000	96.467441
1285.000000	96.469359
1284.000000	96.453321
1283.000000	96.452842
1282.000000	96.455363
1281.000000	96.470026
1280.000000	96.468758
1279.000000	96.461146
1278.000000	96.476454
1277.000000	96.463678
1276.000000	96.458626
1275.000000	96.460767
1274.000000	96.465078
1273.000000	96.467210
1272.000000	96.465831
1271.000000	96.458790
1270.000000	96.458859
1269.000000	96.461604
1268.000000	96.460560
1267.000000	96.468065
1266.000000	96.479090
1265.000000	96.467041
1264.000000	96.475084
1263.000000	96.487991
1262.000000	96.478807
1261.000000	96.463694
1260.000000	96.467838
1259.000000	96.475526
1258.000000	96.475314
1257.000000	96.461310
1256.000000	96.447476
1255.000000	96.470363
1254.000000	96.473555
1253.000000	96.470432
1252.000000	96.493218
1251.000000	96.485185
1250.000000	96.468663
1249.000000	96.481974
1248.000000	96.485345
1247.000000	96.482944
1246.000000	96.481161
1245.000000	96.491060
1244.000000	96.500034
1243.000000	96.503094
1242.000000	96.513255
1241.000000	96.505629
1240.000000	96.503285
1239.000000	96.519863
1238.000000	96.517235
1237.000000	96.520501
1236.000000	96.528764
1235.000000	96.524018
1234.000000	96.511288
1233.000000	96.534046
1232.000000	96.523272
1231.000000	96.534747
1230.000000	96.534744
1229.000000	96.535311
1228.000000	96.547480
1227.000000	96.538544
1226.000000	96.550871
1225.000000	96.558823
1224.000000	96.559234
1223.000000	96.563520
1222.000000	96.560948
1221.000000	96.566399
1220.000000	96.563159
1219.000000	96.561506
1218.000000	96.576940
1217.000000	96.580351
1216.000000	96.591258
1215.000000	96.569856
1214.000000	96.579467
1213.000000	96.576597
1212.000000	96.575089
1211.000000	96.589250
1210.000000	96.581015
1209.000000	96.608493
1208.000000	96.606567
1207.000000	96.582598
1206.000000	96.607542
1205.000000	96.608244
1204.000000	96.592059
1203.000000	96.601730
1202.000000	96.620274
1201.000000	96.626944
1200.000000	96.594851
1199.000000	96.599339
1198.000000	96.623003
1197.000000	96.623602
1196.000000	96.637435
1195.000000	96.621419
1194.000000	96.639324
1193.000000	96.630610
1192.000000	96.652760
1191.000000	96.639301
1190.000000	96.639906
1189.000000	96.640843
1188.000000	96.651867
1187.000000	96.649142
1186.000000	96.646858
1185.000000	96.666806
1184.000000	96.663930
1183.000000	96.656529
1182.000000	96.663558
1181.000000	96.658992
1180.000000	96.666584
1179.000000	96.646350
1178.000000	96.668920
1177.000000	96.665394
1176.000000	96.661929
1175.000000	96.662215
1174.000000	96.663193
1173.000000	96.663028
1172.000000	96.664392
1171.000000	96.679138
1170.000000	96.655931
1169.000000	96.676082
1168.000000	96.680819
1167.000000	96.684246
1166.000000	96.696044
1165.000000	96.680849
1164.000000	96.703828
1163.000000	96.695895
1162.000000	96.696887
1161.000000	96.689743
1160.000000	96.689696
1159.000000	96.693909
1158.000000	96.706107
1157.000000	96.695112
1156.000000	96.705043
1155.000000	96.706612
1154.000000	96.698741
1153.000000	96.711960
1152.000000	96.707425
1151.000000	96.716691
1150.000000	96.719624
1149.000000	96.706564
1148.000000	96.703684
1147.000000	96.715197
1146.000000	96.728057
1145.000000	96.732770
1144.000000	96.728089
1143.000000	96.741473
1142.000000	96.726168
1141.000000	96.733914
1140.000000	96.720375
1139.000000	96.726188
1138.000000	96.729688
1137.000000	96.736832
1136.000000	96.734820
1135.000000	96.737799
1134.000000	96.728248
1133.000000	96.745500
1132.000000	96.739571
1131.000000	96.735046
1130.000000	96.755878
1129.000000	96.751892
1128.000000	96.753272
1127.000000	96.763297
1126.000000	96.771660
1125.000000	96.773280
1124.000000	96.775996
1123.000000	96.768374
1122.000000	96.771673
1121.000000	96.765990
1120.000000	96.784703
1119.000000	96.794972
1118.000000	96.772645
1117.000000	96.772960
1116.000000	96.771140
1115.000000	96.770600
1114.000000	96.766181
1113.000000	96.772967
1112.000000	96.773257
1111.000000	96.774154
1110.000000	96.784071
1109.000000	96.791939
1108.000000	96.792972
1107.000000	96.812692
1106.000000	96.807581
1105.000000	96.791998
1104.000000	96.787446
1103.000000	96.792894
1102.000000	96.801050
1101.000000	96.794717
1100.000000	96.806416
1099.000000	96.807209
1098.000000	96.800195
1097.000000	96.802776
1096.000000	96.801983
1095.000000	96.801713
1094.000000	96.813260
1093.000000	96.835648
1092.000000	96.826961
1091.000000	96.823740
1090.000000	96.831162
1089.000000	96.826186
1088.000000	96.826716
1087.000000	96.870197
1086.000000	96.936775
1085.000000	96.944031
1084.000000	96.937805
1083.000000	96.931644
1082.000000	96.933331
1081.000000	96.947723
1080.000000	96.961256
1079.000000	96.937041
1078.000000	96.942052
1077.000000	96.952062
1076.000000	96.951941
1075.000000	96.943278
1074.000000	96.948714
1073.000000	96.926101
1072.000000	96.878894
1071.000000	96.869897
1070.000000	96.874274
1069.000000	96.882607
1068.000000	96.893240
1067.000000	96.889842
1066.000000	96.886133
1065.000000	96.835185
1064.000000	96.732602
1063.000000	96.676652
1062.000000	96.689532
1061.000000	96.791532
1060.000000	96.864432
1059.000000	96.881347
1058.000000	96.884579
1057.000000	96.883849
1056.000000	96.894828
1055.000000	96.936912
1054.000000	96.984847
1053.000000	97.003771
1052.000000	97.005703
1051.000000	97.005502
1050.000000	96.999960
1049.000000	96.997297
1048.000000	96.990655
1047.000000	96.997459
1046.000000	97.011586
1045.000000	96.966047
1044.000000	96.936256
1043.000000	96.927561
1042.000000	96.942853
1041.000000	96.946025
1040.000000	96.941851
1039.000000	96.923268
1038.000000	96.928021
1037.000000	96.950437
1036.000000	96.953163
1035.000000	96.946502
1034.000000	96.952741
1033.000000	96.945916
1032.000000	96.933122
1031.000000	96.952839
1030.000000	96.943392
1029.000000	96.935453
1028.000000	96.967504
1027.000000	96.976263
1026.000000	96.970807
1025.000000	96.961367
1024.000000	96.969516
1023.000000	96.973490
1022.000000	96.973004
1021.000000	96.973519
1020.000000	96.982462
1019.000000	96.970836
1018.000000	96.982088
1017.000000	96.993771
1016.000000	96.985021
1015.000000	96.979054
1014.000000	96.992182
1013.000000	96.985923
1012.000000	96.987327
1011.000000	96.979299
1010.000000	96.996569
1009.000000	97.013629
1008.000000	97.012935
1007.000000	97.008009
1006.000000	97.001712
1005.000000	96.975238
1004.000000	96.998661
1003.000000	97.006092
1002.000000	97.011530
1001.000000	97.041546
1000.000000	97.027749
999.000000	97.030798
998.000000	97.027338
997.000000	97.013204
996.000000	97.015650
995.000000	97.025579
994.000000	97.030064
993.000000	97.020855
992.000000	97.013227
991.000000	97.013690
990.000000	97.034743
989.000000	97.003435
988.000000	97.044904
987.000000	97.022725
986.000000	97.018982
985.000000	97.025388
984.000000	97.025566
983.000000	97.032956
982.000000	97.017837
981.000000	97.036276
980.000000	97.024895
979.000000	97.036340
978.000000	97.059287
977.000000	97.026396
976.000000	97.053895
975.000000	97.036510
974.000000	97.036738
973.000000	97.046915
972.000000	97.012900
971.000000	97.008562
970.000000	96.856623
969.000000	96.986276
968.000000	96.978275
967.000000	96.997398
966.000000	96.998725
965.000000	97.023840
964.000000	97.205974
963.000000	97.194334
962.000000	97.243515
961.000000	97.194348
960.000000	97.058556
959.000000	97.038404
958.000000	97.064972
957.000000	97.052179
956.000000	97.033521
955.000000	97.061348
954.000000	97.117091
953.000000	97.045770
952.000000	97.062853
951.000000	97.058435
950.000000	97.039719
949.000000	97.071322
948.000000	97.068832
947.000000	97.075287
946.000000	97.093843
945.000000	97.008560
944.000000	97.049983
943.000000	97.095736
942.000000	97.124360
941.000000	97.105403
940.000000	97.103099
939.000000	97.142390
938.000000	97.111070
937.000000	97.082892
936.000000	97.063091
935.000000	97.102061
934.000000	97.079722
933.000000	97.055810
932.000000	97.078072
931.000000	97.047308
930.000000	97.113814
929.000000	97.067034
928.000000	97.071532
927.000000	97.079675
926.000000	97.118236
925.000000	97.116779
924.000000	97.118558
923.000000	97.128153
922.000000	97.081830
921.000000	97.059650
920.000000	97.061988
919.000000	96.956184
918.000000	97.047380
917.000000	97.011400
916.000000	97.016283
915.000000	97.251735
914.000000	97.277016
913.000000	97.065301
912.000000	97.125410
911.000000	97.068592
910.000000	97.118479
909.000000	97.127586
908.000000	97.084097
907.000000	97.111939
906.000000	97.114984
905.000000	97.042991
904.000000	97.121297
903.000000	96.997525
902.000000	97.114877
901.000000	97.050226
900.000000	97.104951
899.000000	97.040701
898.000000	97.045866
897.000000	97.081641
896.000000	97.239089
895.000000	97.017676
894.000000	96.938755
893.000000	97.062699
892.000000	97.106851
891.000000	96.985225
890.000000	96.980719
889.000000	97.084158
888.000000	97.041759
887.000000	96.995447
886.000000	96.920515
885.000000	96.868318
884.000000	96.947104
883.000000	96.972039
882.000000	97.037239
881.000000	96.901080
880.000000	97.073440
879.000000	97.145686
878.000000	97.137744
877.000000	97.092581
876.000000	97.092014
875.000000	96.971390
874.000000	97.032082
873.000000	96.914057
872.000000	96.927966
871.000000	96.969612
870.000000	96.913000
869.000000	96.899564
868.000000	96.909578
867.000000	96.784343
866.000000	96.757077
865.000000	96.792702
864.000000	96.936424
863.000000	96.976740
862.000000	97.019687
861.000000	96.867604
860.000000	96.892451
859.000000	96.937066
858.000000	96.817482
857.000000	96.803360
856.000000	96.728861
855.000000	97.041556
854.000000	97.026102
853.000000	96.813227
852.000000	96.819965
851.000000	96.808565
850.000000	96.868305
849.000000	96.836868
848.000000	96.695321
847.000000	96.723717
846.000000	96.734565
845.000000	96.646688
844.000000	96.558105
843.000000	96.719925
842.000000	96.769717
841.000000	96.619000
840.000000	96.648820
839.000000	96.665593
838.000000	96.709469
837.000000	96.661818
836.000000	96.534023
835.000000	96.690549
834.000000	96.659192
833.000000	96.717491
832.000000	96.657775
831.000000	96.650796
830.000000	96.630319
829.000000	96.632411
828.000000	96.570832
827.000000	96.577302
826.000000	96.648292
825.000000	96.633462
824.000000	96.685899
823.000000	96.619543
822.000000	96.580090
821.000000	96.670013
820.000000	96.645878
819.000000	96.579955
818.000000	96.622336
817.000000	96.588613
816.000000	96.547029
815.000000	96.537831
814.000000	96.624364
813.000000	96.618336
812.000000	96.552201
811.000000	96.533351
810.000000	96.485071
809.000000	96.472822
808.000000	96.435737
807.000000	96.483133
806.000000	96.555622
805.000000	96.519413
804.000000	96.459650
803.000000	96.478834
802.000000	96.519191
801.000000	96.481049
800.000000	96.432936
799.000000	96.449232
798.000000	96.453256
797.000000	96.411633
796.000000	96.393836
795.000000	96.441907
794.000000	96.459835
793.000000	96.424861
792.000000	96.342361
791.000000	96.360227
790.000000	96.379760
789.000000	96.394143
788.000000	96.386678
787.000000	96.334283
786.000000	96.387665
785.000000	96.370058
784.000000	96.352380
783.000000	96.386697
782.000000	96.326535
781.000000	96.276160
780.000000	96.299188
779.000000	96.323755
778.000000	96.334139
777.000000	96.325140
776.000000	96.300792
775.000000	96.293555
774.000000	96.362199
773.000000	96.334298
772.000000	96.252896
771.000000	96.267250
770.000000	96.281744
769.000000	96.275130
768.000000	96.187740
767.000000	96.189144
766.000000	96.177860
765.000000	96.154303
764.000000	96.186304
763.000000	96.253745
762.000000	96.275901
761.000000	96.215889
760.000000	96.128058
759.000000	96.135721
758.000000	96.083615
757.000000	96.120969
756.000000	96.089682
755.000000	96.116853
754.000000	96.109729
753.000000	96.097704
752.000000	96.069568
751.000000	96.024348
750.000000	96.103692
749.000000	96.089013
748.000000	96.056639
747.000000	96.053926
746.000000	96.038698
745.000000	96.040721
744.000000	96.000516
743.000000	95.977948
742.000000	95.965436
741.000000	95.938618
740.000000	95.987412
739.000000	95.943724
738.000000	95.885640
737.000000	95.920025
736.000000	95.934703
735.000000	95.872823
734.000000	95.847409
733.000000	95.829318
732.000000	95.826297
731.000000	95.823508
730.000000	95.803334
729.000000	95.757214
728.000000	95.793285
727.000000	95.819768
726.000000	95.779033
725.000000	95.719509
724.000000	95.761658
723.000000	95.732143
722.000000	95.690864
721.000000	95.673635
720.000000	95.664828
719.000000	95.662707
718.000000	95.638779
717.000000	95.581007
716.000000	95.605003
715.000000	95.604914
714.000000	95.623551
713.000000	95.595094
712.000000	95.523542
711.000000	95.566957
710.000000	95.473669
709.000000	95.531276
708.000000	95.497297
707.000000	95.455068
706.000000	95.395740
705.000000	95.448077
704.000000	95.411513
703.000000	95.389474
702.000000	95.340500
701.000000	95.365029
700.000000	95.339536
699.000000	95.298634
698.000000	95.256353
697.000000	95.251862
696.000000	95.277918
695.000000	95.255522
694.000000	95.118094
693.000000	95.236726
692.000000	95.158267
691.000000	95.166607
690.000000	95.154255
689.000000	95.037436
688.000000	95.036190
687.000000	95.059426
686.000000	95.010514
685.000000	94.961796
684.000000	94.959056
683.000000	94.930946
682.000000	94.921584
681.000000	94.900637
680.000000	94.873969
679.000000	94.904727
678.000000	94.876055
677.000000	94.840454
676.000000	94.787367
675.000000	94.754895
674.000000	94.745864
673.000000	94.791470
672.000000	94.750321
671.000000	94.703278
670.000000	94.659450
669.000000	94.668175
668.000000	94.646113
667.000000	94.603629
666.000000	94.591646
665.000000	94.554516
664.000000	94.559732
663.000000	94.538795
662.000000	94.524856
661.000000	94.461265
660.000000	94.506419
659.000000	94.495146
658.000000	94.474182
657.000000	94.430075
656.000000	94.379705
655.000000	94.349692
654.000000	94.363943
653.000000	94.366329
652.000000	94.367737
651.000000	94.327600
650.000000	94.266303
649.000000	94.274349
648.000000	94.266507
647.000000	94.240787
646.000000	94.212143
645.000000	94.219695
644.000000	94.180443
643.000000	94.144332
642.000000	94.113015
641.000000	94.126398
640.000000	94.102892
639.000000	94.057583
638.000000	94.033394
637.000000	94.016214
636.000000	94.023438
635.000000	94.000118
634.000000	93.994121
633.000000	93.990370
632.000000	93.935366
631.000000	93.942339
630.000000	93.927322
629.000000	93.886453
628.000000	93.891321
627.000000	93.871508
626.000000	93.875231
625.000000	93.845554
624.000000	93.842173
623.000000	93.786720
622.000000	93.781933
621.000000	93.746895
620.000000	93.750615
619.000000	93.752652
618.000000	93.729091
617.000000	93.688535
616.000000	93.692356
615.000000	93.654891
614.000000	93.644180
613.000000	93.608946
612.000000	93.600034
611.000000	93.589565
610.000000	93.553059
609.000000	93.527312
608.000000	93.548719
607.000000	93.514315
606.000000	93.492019
605.000000	93.479738
604.000000	93.480479
603.000000	93.483362
602.000000	93.457281
601.000000	93.433859
600.000000	93.420209
599.000000	93.384275
598.000000	93.383900
597.000000	93.363599
596.000000	93.345251
595.000000	93.333648
594.000000	93.328347
593.000000	93.311649
592.000000	93.289562
591.000000	93.259670
590.000000	93.236323
589.000000	93.224767
588.000000	93.212364
587.000000	93.193793
586.000000	93.188443
585.000000	93.175160
584.000000	93.152313
583.000000	93.136039
582.000000	93.141258
581.000000	93.127216
580.000000	93.125514
579.000000	93.094600
578.000000	93.085333
577.000000	93.084437
576.000000	93.036314
575.000000	93.038316
574.000000	93.031926
573.000000	93.003251
572.000000	92.982052
571.000000	92.983291
570.000000	92.968669
569.000000	92.933990
568.000000	92.928342
567.000000	92.919675
566.000000	92.897751
565.000000	92.881630
564.000000	92.886613
563.000000	92.886487
562.000000	92.858335
561.000000	92.835738
560.000000	92.830097
559.000000	92.815851
558.000000	92.796427
557.000000	92.787008
556.000000	92.775195
555.000000	92.754581
554.000000	92.736204
553.000000	92.713306
552.000000	92.699748
551.000000	92.691259
550.000000	92.679657
549.000000	92.679037
548.000000	92.674765
547.000000	92.660206
546.000000	92.630545
545.000000	92.628341
544.000000	92.627200
543.000000	92.639439
542.000000	92.620494
541.000000	92.560385
540.000000	92.544254
539.000000	92.563447
538.000000	92.549386
537.000000	92.530230
536.000000	92.575798
535.000000	92.588051
534.000000	92.543061
533.000000	92.538691
532.000000	92.496570
531.000000	92.492283
530.000000	92.508279
529.000000	92.490242
528.000000	92.460563
527.000000	92.453857
526.000000	92.437712
525.000000	92.429993
524.000000	92.428483
523.000000	92.413917
522.000000	92.405686
521.000000	92.416991
520.000000	92.401107
519.000000	92.387141
518.000000	92.398673
517.000000	92.389778
516.000000	92.368936
515.000000	92.378486
514.000000	92.377876
513.000000	92.377468
512.000000	92.355691
511.000000	92.364150
510.000000	92.363383
509.000000	92.327691
508.000000	92.300913
507.000000	92.316976
506.000000	92.309103
505.000000	92.298265
504.000000	92.304908
503.000000	92.308805
502.000000	92.314808
501.000000	92.337320
500.000000	92.319142
499.000000	92.295263
498.000000	92.297242
497.000000	92.305393
496.000000	92.268164
495.000000	92.275402
494.000000	92.292747
493.000000	92.299485
492.000000	92.256636
491.000000	92.295153
490.000000	92.306779
489.000000	92.299939
488.000000	92.297281
487.000000	92.292750
486.000000	92.264420
485.000000	92.284347
484.000000	92.288025
483.000000	92.315994
482.000000	92.289667
481.000000	92.303055
480.000000	92.287173
479.000000	92.324974
478.000000	92.319916
477.000000	92.311804
476.000000	92.335460
475.000000	92.351822
474.000000	92.352752
473.000000	92.382214
472.000000	92.364462
471.000000	92.388402
470.000000	92.371121
469.000000	92.400511
468.000000	92.403867
467.000000	92.437959
466.000000	92.442712
465.000000	92.463779
464.000000	92.527286
463.000000	92.523535
462.000000	92.477334
461.000000	92.516493
460.000000	92.500226
459.000000	92.546704
458.000000	92.595607
457.000000	92.598554
456.000000	92.610863
455.000000	92.607807
454.000000	92.656700
453.000000	92.659488
452.000000	92.716344
451.000000	92.685117
450.000000	92.730743
449.000000	92.726894
448.000000	92.721666
447.000000	92.757422
446.000000	92.779443
445.000000	92.844756
444.000000	92.859115
443.000000	92.858176
442.000000	92.860700
441.000000	92.913581
440.000000	92.974828
439.000000	92.973292
438.000000	93.034384
437.000000	93.023953
436.000000	93.095607
435.000000	93.187586
434.000000	93.217726
433.000000	93.237819
432.000000	93.283145
431.000000	93.387016
430.000000	93.349355
429.000000	93.371949
428.000000	93.450300
427.000000	93.496724
426.000000	93.478733
425.000000	93.573088
424.000000	93.602180
423.000000	93.658942
422.000000	93.695427
421.000000	93.774057
420.000000	93.793625
419.000000	93.859807
418.000000	93.906486
417.000000	93.949942
416.000000	94.002906
415.000000	94.081758
414.000000	94.108202
413.000000	94.200846
412.000000	94.220045
411.000000	94.243754
410.000000	94.329420
409.000000	94.416428
408.000000	94.494225
407.000000	94.599395
406.000000	94.610265
405.000000	94.658504
404.000000	94.746214
403.000000	94.783684
402.000000	94.874613
401.000000	94.914025
400.000000	94.977270
399.000000	95.064724
398.000000	95.102775
397.000000	95.166957
396.000000	95.157983
395.000000	95.281652
394.000000	95.297108
393.000000	95.339793
392.000000	95.383267
391.000000	95.451472
390.000000	95.515214
389.000000	95.488464
388.000000	95.526201
387.000000	95.485435
386.000000	95.456580
385.000000	95.530754
384.000000	95.526315
383.000000	95.516616
382.000000	95.553022
381.000000	95.472276
380.000000	95.555242
379.000000	95.579624
378.000000	95.773780
377.000000	95.804545
376.000000	95.878864
375.000000	95.828467
374.000000	95.945353
373.000000	96.032169
372.000000	96.029916
371.000000	96.119743
370.000000	96.311673
369.000000	96.433664
368.000000	96.323410
367.000000	96.408997
366.000000	96.419554
365.000000	96.430392
364.000000	96.543986
363.000000	96.444183
362.000000	96.437464
361.000000	96.399514
360.000000	96.376823
359.000000	96.369797
358.000000	96.292649
357.000000	96.189264
356.000000	96.156036
355.000000	96.156763
354.000000	95.974634
353.000000	95.840155
352.000000	95.878948
351.000000	95.759360
350.000000	95.605295
349.000000	95.551348
348.000000	95.375578
347.000000	95.218389
346.000000	95.118785
345.000000	94.838059
344.000000	94.667749
343.000000	94.445288
342.000000	94.240259
341.000000	93.995180
340.000000	93.644131
339.000000	93.412417
338.000000	93.115786
337.000000	92.692317
336.000000	92.273302
335.000000	91.954548
334.000000	91.508559
333.000000	90.912787
332.000000	90.461605
331.000000	89.711260
330.000000	88.922289
329.000000	88.266483
328.000000	87.464402
327.000000	86.613896
326.000000	85.725198
325.000000	84.728163
324.000000	83.775701
323.000000	82.731647
322.000000	81.354950
321.000000	80.016176
320.000000	78.446949
319.000000	76.993437
318.000000	75.681081
317.000000	74.140590
316.000000	72.494489
315.000000	70.725346
314.000000	68.928358
313.000000	66.955641
312.000000	65.019012
311.000000	63.039599
310.000000	60.912445
309.000000	58.725884
308.000000	56.492210
307.000000	54.294539
306.000000	52.071991
305.000000	49.791159
304.000000	47.502414
303.000000	45.165378
302.000000	42.799097
301.000000	40.406651
300.000000	38.049050
