PE UV       SUBTECH     SPECTRUM    ASCII       PEDS        4.00        
   -1
Sample884.Sample.asc
12/04/24
12:41:51.00
12/04/24
12:41:51.00
Analyst
ITO4_3_A
250.000000
1
Lambda 950
950N6032301
PerkinElmer UV WinLab 5.1.5.0637 / 1.61.00 Lambda 900

0
0
3350/servo 860.8/2
0
0
UV/VIS
1
1
1
RBeamAtt,SBeamAtt,150mm sphere / downward view
0
0
0
0
Program
Program
3350/servo 860.8/2
3350/1 860.8/1
3350/1 860.8/1
0
1
 
 
 
0
 
860.8
319.2
860.8
Front
100
 
S:100 R:100
 
0
0
0
 
0
 
 
 
0
 
 
0
0
0
0
0
 
 
 
 
0
0
#HDR
-1
-1
#GR
nm
%T
1.0
0.0
2500.000000
-1.000000
2251
8
15.656082
3.081955
#DATA
2500.000000	5.308382
2499.000000	4.062953
2498.000000	4.355383
2497.000000	5.354994
2496.000000	3.081955
2495.000000	5.162984
2494.000000	6.135518
2493.000000	4.127633
2492.000000	4.687788
2491.000000	4.430159
2490.000000	4.620288
2489.000000	4.906375
2488.000000	4.870410
2487.000000	5.451437
2486.000000	4.392130
2485.000000	4.678715
2484.000000	4.096576
2483.000000	3.518734
2482.000000	3.297824
2481.000000	4.838088
2480.000000	4.437792
2479.000000	4.944392
2478.000000	4.459987
2477.000000	5.390119
2476.000000	4.850545
2475.000000	5.101162
2474.000000	4.742002
2473.000000	3.394517
2472.000000	5.162531
2471.000000	4.177541
2470.000000	3.669043
2469.000000	3.236261
2468.000000	4.421109
2467.000000	4.345803
2466.000000	3.822953
2465.000000	5.266203
2464.000000	3.511195
2463.000000	4.006439
2462.000000	3.443086
2461.000000	3.917856
2460.000000	3.890067
2459.000000	4.390961
2458.000000	4.773007
2457.000000	4.539490
2456.000000	4.715740
2455.000000	4.247923
2454.000000	4.038694
2453.000000	3.433316
2452.000000	4.497366
2451.000000	4.544299
2450.000000	4.132415
2449.000000	3.612383
2448.000000	4.056978
2447.000000	3.832519
2446.000000	5.135461
2445.000000	5.075995
2444.000000	3.983497
2443.000000	4.558889
2442.000000	3.892951
2441.000000	3.499930
2440.000000	4.695453
2439.000000	3.787785
2438.000000	4.689380
2437.000000	3.342611
2436.000000	4.557272
2435.000000	4.428218
2434.000000	4.499979
2433.000000	5.544135
2432.000000	4.545876
2431.000000	4.181726
2430.000000	4.230297
2429.000000	3.851939
2428.000000	3.697736
2427.000000	4.688556
2426.000000	4.142076
2425.000000	3.951934
2424.000000	4.246104
2423.000000	4.793040
2422.000000	4.737076
2421.000000	4.390049
2420.000000	4.537552
2419.000000	4.798183
2418.000000	4.467621
2417.000000	4.069931
2416.000000	4.202002
2415.000000	5.293258
2414.000000	4.492305
2413.000000	3.684874
2412.000000	4.673320
2411.000000	4.544203
2410.000000	4.346277
2409.000000	4.079663
2408.000000	4.952240
2407.000000	4.775123
2406.000000	4.150676
2405.000000	4.634204
2404.000000	5.170860
2403.000000	4.715317
2402.000000	4.595661
2401.000000	4.375096
2400.000000	4.803968
2399.000000	4.567257
2398.000000	4.694966
2397.000000	4.949990
2396.000000	4.312708
2395.000000	4.603800
2394.000000	4.830133
2393.000000	4.373152
2392.000000	4.626476
2391.000000	4.626258
2390.000000	4.281185
2389.000000	4.288391
2388.000000	4.632174
2387.000000	4.871822
2386.000000	4.569397
2385.000000	4.300598
2384.000000	4.592449
2383.000000	4.521629
2382.000000	4.157860
2381.000000	4.546015
2380.000000	4.710695
2379.000000	4.718844
2378.000000	5.052515
2377.000000	4.536905
2376.000000	4.454354
2375.000000	4.465539
2374.000000	4.323864
2373.000000	4.364354
2372.000000	4.626042
2371.000000	4.733301
2370.000000	4.855601
2369.000000	4.843454
2368.000000	4.781470
2367.000000	4.838197
2366.000000	4.648754
2365.000000	4.432693
2364.000000	4.314455
2363.000000	4.421131
2362.000000	4.450612
2361.000000	4.759371
2360.000000	4.574233
2359.000000	4.509083
2358.000000	4.337039
2357.000000	4.421016
2356.000000	4.871853
2355.000000	4.486783
2354.000000	4.246953
2353.000000	4.798196
2352.000000	4.932642
2351.000000	4.639117
2350.000000	4.660440
2349.000000	4.607409
2348.000000	4.138102
2347.000000	4.401005
2346.000000	4.519803
2345.000000	4.268100
2344.000000	4.492573
2343.000000	4.900654
2342.000000	4.866741
2341.000000	4.587399
2340.000000	4.360531
2339.000000	4.481728
2338.000000	4.392991
2337.000000	4.377526
2336.000000	4.662281
2335.000000	4.838860
2334.000000	4.582898
2333.000000	4.320993
2332.000000	4.374989
2331.000000	4.426637
2330.000000	4.665547
2329.000000	4.501433
2328.000000	4.502854
2327.000000	4.688567
2326.000000	4.174664
2325.000000	4.412453
2324.000000	4.376625
2323.000000	4.337520
2322.000000	4.418779
2321.000000	4.847920
2320.000000	4.580919
2319.000000	4.008072
2318.000000	4.079136
2317.000000	4.457153
2316.000000	4.686439
2315.000000	4.502645
2314.000000	4.707509
2313.000000	4.692093
2312.000000	4.741645
2311.000000	4.444775
2310.000000	4.342837
2309.000000	4.299437
2308.000000	4.312791
2307.000000	4.199490
2306.000000	4.727891
2305.000000	4.605495
2304.000000	4.698973
2303.000000	4.888903
2302.000000	4.581866
2301.000000	4.805878
2300.000000	4.767901
2299.000000	4.171267
2298.000000	4.563992
2297.000000	4.431262
2296.000000	4.169710
2295.000000	4.710013
2294.000000	4.566473
2293.000000	4.663887
2292.000000	5.130933
2291.000000	4.621626
2290.000000	4.304919
2289.000000	4.460404
2288.000000	4.484979
2287.000000	4.639823
2286.000000	4.690278
2285.000000	4.589695
2284.000000	4.345528
2283.000000	4.517215
2282.000000	4.310693
2281.000000	4.239848
2280.000000	4.366648
2279.000000	4.965603
2278.000000	4.592665
2277.000000	4.589275
2276.000000	4.180692
2275.000000	4.902436
2274.000000	4.512802
2273.000000	4.742629
2272.000000	4.128442
2271.000000	5.052039
2270.000000	4.799594
2269.000000	4.595422
2268.000000	4.859627
2267.000000	4.806448
2266.000000	4.558477
2265.000000	4.758701
2264.000000	4.638846
2263.000000	4.682874
2262.000000	4.688213
2261.000000	4.300098
2260.000000	4.876943
2259.000000	4.289574
2258.000000	4.500949
2257.000000	4.449521
2256.000000	4.504090
2255.000000	4.457973
2254.000000	5.036913
2253.000000	4.693261
2252.000000	4.870268
2251.000000	4.492301
2250.000000	4.721683
2249.000000	4.561328
2248.000000	4.830287
2247.000000	4.485382
2246.000000	4.904650
2245.000000	4.665718
2244.000000	4.852087
2243.000000	4.905490
2242.000000	5.047929
2241.000000	4.623791
2240.000000	4.403213
2239.000000	4.927647
2238.000000	4.536172
2237.000000	4.560756
2236.000000	4.719893
2235.000000	4.478429
2234.000000	5.085105
2233.000000	4.424963
2232.000000	4.917962
2231.000000	4.403191
2230.000000	4.864942
2229.000000	4.485644
2228.000000	4.903099
2227.000000	4.532495
2226.000000	5.092456
2225.000000	4.597111
2224.000000	4.695727
2223.000000	4.901884
2222.000000	4.437737
2221.000000	4.587971
2220.000000	4.706867
2219.000000	4.804169
2218.000000	4.449855
2217.000000	4.656503
2216.000000	4.407524
2215.000000	5.006805
2214.000000	4.938011
2213.000000	4.826142
2212.000000	4.858542
2211.000000	4.486466
2210.000000	4.860145
2209.000000	4.666391
2208.000000	4.836248
2207.000000	4.897702
2206.000000	4.664729
2205.000000	4.593782
2204.000000	4.685977
2203.000000	4.694599
2202.000000	4.792302
2201.000000	4.703959
2200.000000	4.705932
2199.000000	4.790724
2198.000000	4.603754
2197.000000	4.887646
2196.000000	5.027217
2195.000000	4.714264
2194.000000	4.810153
2193.000000	4.727301
2192.000000	4.723640
2191.000000	4.918475
2190.000000	4.793009
2189.000000	4.477813
2188.000000	4.391541
2187.000000	4.556957
2186.000000	4.888405
2185.000000	4.839887
2184.000000	4.748629
2183.000000	4.781676
2182.000000	5.010576
2181.000000	4.923852
2180.000000	4.990388
2179.000000	4.960741
2178.000000	4.561677
2177.000000	4.688793
2176.000000	4.784898
2175.000000	4.830940
2174.000000	4.552604
2173.000000	4.800650
2172.000000	4.895233
2171.000000	4.924655
2170.000000	4.895917
2169.000000	4.863155
2168.000000	4.898888
2167.000000	4.950131
2166.000000	4.758192
2165.000000	4.669680
2164.000000	4.753040
2163.000000	5.124050
2162.000000	4.828579
2161.000000	4.688613
2160.000000	4.882034
2159.000000	4.969472
2158.000000	4.744231
2157.000000	4.765209
2156.000000	4.889852
2155.000000	4.935638
2154.000000	4.937940
2153.000000	4.845694
2152.000000	4.943673
2151.000000	4.878616
2150.000000	4.993204
2149.000000	4.645540
2148.000000	4.698056
2147.000000	5.007204
2146.000000	4.902440
2145.000000	4.743279
2144.000000	4.772055
2143.000000	5.230464
2142.000000	5.004033
2141.000000	5.200989
2140.000000	5.166792
2139.000000	4.824379
2138.000000	4.698144
2137.000000	4.683734
2136.000000	4.762230
2135.000000	4.971236
2134.000000	5.071844
2133.000000	4.811030
2132.000000	4.932742
2131.000000	5.016167
2130.000000	4.808771
2129.000000	4.907432
2128.000000	4.687592
2127.000000	4.863345
2126.000000	4.992727
2125.000000	5.048403
2124.000000	4.973071
2123.000000	4.948842
2122.000000	4.904084
2121.000000	4.826919
2120.000000	4.977041
2119.000000	4.865078
2118.000000	4.838532
2117.000000	4.847642
2116.000000	4.919370
2115.000000	4.821272
2114.000000	4.762589
2113.000000	5.025091
2112.000000	5.018628
2111.000000	4.896753
2110.000000	4.893262
2109.000000	4.970482
2108.000000	4.992327
2107.000000	5.049045
2106.000000	4.877117
2105.000000	4.900223
2104.000000	5.054727
2103.000000	5.046888
2102.000000	4.979490
2101.000000	4.853491
2100.000000	4.959695
2099.000000	4.932433
2098.000000	4.977940
2097.000000	5.065088
2096.000000	5.051916
2095.000000	5.052397
2094.000000	4.906290
2093.000000	4.868435
2092.000000	4.880400
2091.000000	4.960927
2090.000000	5.005837
2089.000000	5.064541
2088.000000	5.075225
2087.000000	5.066469
2086.000000	5.074276
2085.000000	5.022842
2084.000000	4.853353
2083.000000	4.899476
2082.000000	4.993003
2081.000000	5.053756
2080.000000	4.983214
2079.000000	4.937365
2078.000000	5.157890
2077.000000	5.116917
2076.000000	4.938550
2075.000000	5.063032
2074.000000	5.144662
2073.000000	4.982094
2072.000000	5.009574
2071.000000	5.091523
2070.000000	4.932181
2069.000000	4.983688
2068.000000	5.227308
2067.000000	5.103710
2066.000000	4.869658
2065.000000	5.062754
2064.000000	5.055133
2063.000000	4.890670
2062.000000	5.089185
2061.000000	5.223102
2060.000000	5.090251
2059.000000	5.006443
2058.000000	5.094181
2057.000000	5.083742
2056.000000	5.229291
2055.000000	5.167938
2054.000000	5.059551
2053.000000	5.165344
2052.000000	5.110086
2051.000000	4.968501
2050.000000	4.976197
2049.000000	5.033341
2048.000000	4.975778
2047.000000	5.030770
2046.000000	5.070916
2045.000000	5.104929
2044.000000	4.978087
2043.000000	5.147337
2042.000000	5.061005
2041.000000	5.014922
2040.000000	5.011071
2039.000000	5.044853
2038.000000	4.984637
2037.000000	5.081166
2036.000000	5.062878
2035.000000	5.161194
2034.000000	5.228081
2033.000000	5.211313
2032.000000	5.097500
2031.000000	5.097030
2030.000000	5.163196
2029.000000	5.115197
2028.000000	5.078666
2027.000000	5.090814
2026.000000	5.085189
2025.000000	5.080730
2024.000000	5.240390
2023.000000	5.118110
2022.000000	5.191403
2021.000000	5.046699
2020.000000	5.158131
2019.000000	5.146118
2018.000000	5.087991
2017.000000	5.165120
2016.000000	5.057476
2015.000000	5.286203
2014.000000	5.133276
2013.000000	5.262420
2012.000000	5.122154
2011.000000	5.235359
2010.000000	5.044031
2009.000000	5.134678
2008.000000	5.223039
2007.000000	5.070148
2006.000000	5.141306
2005.000000	5.095872
2004.000000	5.207453
2003.000000	5.197538
2002.000000	5.098567
2001.000000	5.220403
2000.000000	5.218325
1999.000000	5.162112
1998.000000	5.308689
1997.000000	5.170184
1996.000000	5.188294
1995.000000	5.109330
1994.000000	5.242467
1993.000000	5.200148
1992.000000	5.183518
1991.000000	5.159065
1990.000000	5.254933
1989.000000	5.193273
1988.000000	5.197627
1987.000000	5.257985
1986.000000	5.210633
1985.000000	5.238244
1984.000000	5.232597
1983.000000	5.182254
1982.000000	5.233513
1981.000000	5.176495
1980.000000	5.195771
1979.000000	5.177322
1978.000000	5.292106
1977.000000	5.225446
1976.000000	5.322001
1975.000000	5.302075
1974.000000	5.208747
1973.000000	5.226225
1972.000000	5.330260
1971.000000	5.208252
1970.000000	5.201024
1969.000000	5.293570
1968.000000	5.241866
1967.000000	5.224167
1966.000000	5.253699
1965.000000	5.338994
1964.000000	5.346544
1963.000000	5.371777
1962.000000	5.438279
1961.000000	5.168070
1960.000000	5.153939
1959.000000	5.306613
1958.000000	5.233838
1957.000000	5.268325
1956.000000	5.278521
1955.000000	5.420024
1954.000000	5.327887
1953.000000	5.260972
1952.000000	5.224484
1951.000000	5.226907
1950.000000	5.206413
1949.000000	5.314952
1948.000000	5.305996
1947.000000	5.256721
1946.000000	5.422793
1945.000000	5.238001
1944.000000	5.285019
1943.000000	5.304195
1942.000000	5.297698
1941.000000	5.322807
1940.000000	5.346446
1939.000000	5.370260
1938.000000	5.377630
1937.000000	5.370199
1936.000000	5.415518
1935.000000	5.297337
1934.000000	5.321769
1933.000000	5.264625
1932.000000	5.443094
1931.000000	5.415868
1930.000000	5.379202
1929.000000	5.360315
1928.000000	5.453529
1927.000000	5.443631
1926.000000	5.419884
1925.000000	5.488729
1924.000000	5.233503
1923.000000	5.432193
1922.000000	5.497854
1921.000000	5.451834
1920.000000	5.432684
1919.000000	5.504903
1918.000000	5.418340
1917.000000	5.495287
1916.000000	5.480065
1915.000000	5.348367
1914.000000	5.400169
1913.000000	5.394310
1912.000000	5.451941
1911.000000	5.457725
1910.000000	5.437455
1909.000000	5.377754
1908.000000	5.442108
1907.000000	5.365126
1906.000000	5.575326
1905.000000	5.532483
1904.000000	5.453718
1903.000000	5.469619
1902.000000	5.431302
1901.000000	5.446218
1900.000000	5.516736
1899.000000	5.421812
1898.000000	5.466003
1897.000000	5.535145
1896.000000	5.500170
1895.000000	5.448980
1894.000000	5.534660
1893.000000	5.572933
1892.000000	5.601211
1891.000000	5.517305
1890.000000	5.468903
1889.000000	5.504362
1888.000000	5.462126
1887.000000	5.548313
1886.000000	5.562058
1885.000000	5.494849
1884.000000	5.472731
1883.000000	5.530465
1882.000000	5.512111
1881.000000	5.439178
1880.000000	5.539237
1879.000000	5.541218
1878.000000	5.554630
1877.000000	5.526405
1876.000000	5.571675
1875.000000	5.541680
1874.000000	5.556032
1873.000000	5.603596
1872.000000	5.587433
1871.000000	5.519853
1870.000000	5.525703
1869.000000	5.545904
1868.000000	5.565654
1867.000000	5.558555
1866.000000	5.667467
1865.000000	5.638577
1864.000000	5.616189
1863.000000	5.585634
1862.000000	5.571068
1861.000000	5.627430
1860.000000	5.632696
1859.000000	5.592112
1858.000000	5.636029
1857.000000	5.633152
1856.000000	5.581293
1855.000000	5.651799
1854.000000	5.673012
1853.000000	5.660637
1852.000000	5.633882
1851.000000	5.659154
1850.000000	5.650705
1849.000000	5.666364
1848.000000	5.697424
1847.000000	5.678338
1846.000000	5.685857
1845.000000	5.657669
1844.000000	5.641578
1843.000000	5.626705
1842.000000	5.658791
1841.000000	5.708409
1840.000000	5.692102
1839.000000	5.706245
1838.000000	5.735555
1837.000000	5.696869
1836.000000	5.723572
1835.000000	5.682690
1834.000000	5.685257
1833.000000	5.715095
1832.000000	5.694225
1831.000000	5.692931
1830.000000	5.723623
1829.000000	5.795411
1828.000000	5.737891
1827.000000	5.698681
1826.000000	5.750259
1825.000000	5.789257
1824.000000	5.793092
1823.000000	5.759272
1822.000000	5.735262
1821.000000	5.724734
1820.000000	5.765003
1819.000000	5.792850
1818.000000	5.773244
1817.000000	5.812333
1816.000000	5.767557
1815.000000	5.730053
1814.000000	5.800001
1813.000000	5.791249
1812.000000	5.790626
1811.000000	5.794702
1810.000000	5.801860
1809.000000	5.787266
1808.000000	5.768548
1807.000000	5.786507
1806.000000	5.782705
1805.000000	5.803622
1804.000000	5.813658
1803.000000	5.809390
1802.000000	5.805603
1801.000000	5.815895
1800.000000	5.812850
1799.000000	5.849224
1798.000000	5.831904
1797.000000	5.824589
1796.000000	5.853397
1795.000000	5.862648
1794.000000	5.842223
1793.000000	5.831749
1792.000000	5.851840
1791.000000	5.830566
1790.000000	5.868824
1789.000000	5.859044
1788.000000	5.883903
1787.000000	5.915922
1786.000000	5.880321
1785.000000	5.870367
1784.000000	5.907845
1783.000000	5.894764
1782.000000	5.918477
1781.000000	5.880744
1780.000000	5.882459
1779.000000	5.902783
1778.000000	5.913216
1777.000000	5.927078
1776.000000	5.948421
1775.000000	5.937733
1774.000000	5.934822
1773.000000	5.930705
1772.000000	5.959486
1771.000000	5.904041
1770.000000	5.959011
1769.000000	5.947433
1768.000000	5.944986
1767.000000	5.948717
1766.000000	5.971108
1765.000000	5.972217
1764.000000	5.979001
1763.000000	5.940650
1762.000000	6.002820
1761.000000	6.044210
1760.000000	5.976781
1759.000000	5.990370
1758.000000	6.030062
1757.000000	6.028253
1756.000000	6.011015
1755.000000	5.999750
1754.000000	6.022205
1753.000000	6.026092
1752.000000	6.030194
1751.000000	6.089462
1750.000000	6.013643
1749.000000	6.042011
1748.000000	6.014017
1747.000000	6.046841
1746.000000	6.107954
1745.000000	6.029128
1744.000000	6.066235
1743.000000	6.025384
1742.000000	6.068310
1741.000000	6.074333
1740.000000	6.078804
1739.000000	6.026008
1738.000000	6.091272
1737.000000	6.020085
1736.000000	6.057499
1735.000000	6.161366
1734.000000	6.105581
1733.000000	6.145919
1732.000000	6.126197
1731.000000	6.148329
1730.000000	6.087737
1729.000000	6.154329
1728.000000	6.146774
1727.000000	6.139878
1726.000000	6.104816
1725.000000	6.156630
1724.000000	6.128609
1723.000000	6.157875
1722.000000	6.137592
1721.000000	6.175845
1720.000000	6.133962
1719.000000	6.215774
1718.000000	6.152173
1717.000000	6.229022
1716.000000	6.146894
1715.000000	6.146155
1714.000000	6.179505
1713.000000	6.211741
1712.000000	6.124058
1711.000000	6.231448
1710.000000	6.191183
1709.000000	6.211432
1708.000000	6.250955
1707.000000	6.237441
1706.000000	6.227284
1705.000000	6.171951
1704.000000	6.243490
1703.000000	6.242563
1702.000000	6.251218
1701.000000	6.285955
1700.000000	6.239192
1699.000000	6.315766
1698.000000	6.262302
1697.000000	6.266330
1696.000000	6.320562
1695.000000	6.279130
1694.000000	6.277333
1693.000000	6.256611
1692.000000	6.291890
1691.000000	6.303854
1690.000000	6.314286
1689.000000	6.302124
1688.000000	6.326050
1687.000000	6.294438
1686.000000	6.330712
1685.000000	6.323407
1684.000000	6.295079
1683.000000	6.357773
1682.000000	6.345467
1681.000000	6.343341
1680.000000	6.367026
1679.000000	6.388410
1678.000000	6.388189
1677.000000	6.410923
1676.000000	6.385665
1675.000000	6.373894
1674.000000	6.401737
1673.000000	6.409489
1672.000000	6.411531
1671.000000	6.421980
1670.000000	6.410309
1669.000000	6.416119
1668.000000	6.404056
1667.000000	6.420759
1666.000000	6.404494
1665.000000	6.444810
1664.000000	6.432644
1663.000000	6.439619
1662.000000	6.443950
1661.000000	6.442747
1660.000000	6.458060
1659.000000	6.476606
1658.000000	6.460422
1657.000000	6.442380
1656.000000	6.502770
1655.000000	6.505530
1654.000000	6.505878
1653.000000	6.461372
1652.000000	6.464054
1651.000000	6.513272
1650.000000	6.520526
1649.000000	6.524386
1648.000000	6.494135
1647.000000	6.492000
1646.000000	6.494906
1645.000000	6.540235
1644.000000	6.568121
1643.000000	6.544349
1642.000000	6.566907
1641.000000	6.545655
1640.000000	6.569948
1639.000000	6.558372
1638.000000	6.556966
1637.000000	6.599894
1636.000000	6.611441
1635.000000	6.568520
1634.000000	6.610518
1633.000000	6.598692
1632.000000	6.602183
1631.000000	6.602526
1630.000000	6.622983
1629.000000	6.651167
1628.000000	6.610388
1627.000000	6.617471
1626.000000	6.651623
1625.000000	6.640637
1624.000000	6.652473
1623.000000	6.630108
1622.000000	6.658157
1621.000000	6.686842
1620.000000	6.691836
1619.000000	6.679991
1618.000000	6.681465
1617.000000	6.671701
1616.000000	6.678459
1615.000000	6.683260
1614.000000	6.683849
1613.000000	6.705663
1612.000000	6.689435
1611.000000	6.716715
1610.000000	6.732091
1609.000000	6.726808
1608.000000	6.720543
1607.000000	6.738879
1606.000000	6.724039
1605.000000	6.735121
1604.000000	6.744615
1603.000000	6.759314
1602.000000	6.759879
1601.000000	6.769706
1600.000000	6.769860
1599.000000	6.779547
1598.000000	6.775300
1597.000000	6.774154
1596.000000	6.796525
1595.000000	6.803505
1594.000000	6.821045
1593.000000	6.814629
1592.000000	6.817474
1591.000000	6.830835
1590.000000	6.841020
1589.000000	6.846119
1588.000000	6.846588
1587.000000	6.830460
1586.000000	6.848935
1585.000000	6.875304
1584.000000	6.856630
1583.000000	6.849667
1582.000000	6.859746
1581.000000	6.869219
1580.000000	6.870406
1579.000000	6.890187
1578.000000	6.899700
1577.000000	6.878644
1576.000000	6.894093
1575.000000	6.918472
1574.000000	6.912354
1573.000000	6.934257
1572.000000	6.944831
1571.000000	6.951434
1570.000000	6.954592
1569.000000	6.960721
1568.000000	6.959921
1567.000000	6.947194
1566.000000	6.960952
1565.000000	6.982165
1564.000000	6.986175
1563.000000	6.984947
1562.000000	6.965385
1561.000000	6.983930
1560.000000	6.999080
1559.000000	7.012933
1558.000000	7.031403
1557.000000	7.021127
1556.000000	6.995750
1555.000000	7.023940
1554.000000	7.035560
1553.000000	7.044164
1552.000000	7.035096
1551.000000	7.056423
1550.000000	7.060600
1549.000000	7.048864
1548.000000	7.063648
1547.000000	7.065203
1546.000000	7.064726
1545.000000	7.080141
1544.000000	7.088896
1543.000000	7.115521
1542.000000	7.099578
1541.000000	7.086887
1540.000000	7.104378
1539.000000	7.101119
1538.000000	7.116303
1537.000000	7.136667
1536.000000	7.164934
1535.000000	7.145677
1534.000000	7.150101
1533.000000	7.144017
1532.000000	7.154001
1531.000000	7.170733
1530.000000	7.145091
1529.000000	7.159603
1528.000000	7.178054
1527.000000	7.169374
1526.000000	7.181429
1525.000000	7.199449
1524.000000	7.203802
1523.000000	7.228985
1522.000000	7.233118
1521.000000	7.232886
1520.000000	7.243748
1519.000000	7.242185
1518.000000	7.225842
1517.000000	7.233816
1516.000000	7.218526
1515.000000	7.233600
1514.000000	7.255425
1513.000000	7.281093
1512.000000	7.269656
1511.000000	7.266289
1510.000000	7.284569
1509.000000	7.321451
1508.000000	7.296168
1507.000000	7.302020
1506.000000	7.317922
1505.000000	7.322314
1504.000000	7.332895
1503.000000	7.329746
1502.000000	7.337176
1501.000000	7.349518
1500.000000	7.343770
1499.000000	7.362006
1498.000000	7.334565
1497.000000	7.395380
1496.000000	7.360356
1495.000000	7.395372
1494.000000	7.374814
1493.000000	7.376331
1492.000000	7.407244
1491.000000	7.437121
1490.000000	7.399626
1489.000000	7.423014
1488.000000	7.415243
1487.000000	7.417922
1486.000000	7.455090
1485.000000	7.443282
1484.000000	7.450519
1483.000000	7.438357
1482.000000	7.470754
1481.000000	7.445152
1480.000000	7.459985
1479.000000	7.484380
1478.000000	7.486098
1477.000000	7.492319
1476.000000	7.512040
1475.000000	7.539825
1474.000000	7.525644
1473.000000	7.508184
1472.000000	7.525235
1471.000000	7.542603
1470.000000	7.540883
1469.000000	7.559632
1468.000000	7.544657
1467.000000	7.559286
1466.000000	7.590358
1465.000000	7.564929
1464.000000	7.586851
1463.000000	7.568636
1462.000000	7.598245
1461.000000	7.606157
1460.000000	7.597680
1459.000000	7.617272
1458.000000	7.600134
1457.000000	7.604766
1456.000000	7.636212
1455.000000	7.628965
1454.000000	7.587548
1453.000000	7.629029
1452.000000	7.633530
1451.000000	7.657339
1450.000000	7.613210
1449.000000	7.630929
1448.000000	7.655390
1447.000000	7.666126
1446.000000	7.678995
1445.000000	7.657739
1444.000000	7.704626
1443.000000	7.697309
1442.000000	7.695974
1441.000000	7.701847
1440.000000	7.706143
1439.000000	7.712738
1438.000000	7.712966
1437.000000	7.747098
1436.000000	7.760204
1435.000000	7.750715
1434.000000	7.776114
1433.000000	7.751500
1432.000000	7.777815
1431.000000	7.787193
1430.000000	7.769236
1429.000000	7.785632
1428.000000	7.799389
1427.000000	7.821737
1426.000000	7.830251
1425.000000	7.808830
1424.000000	7.820662
1423.000000	7.826747
1422.000000	7.834170
1421.000000	7.836758
1420.000000	7.836177
1419.000000	7.868733
1418.000000	7.882770
1417.000000	7.874140
1416.000000	7.861220
1415.000000	7.893798
1414.000000	7.866445
1413.000000	7.874871
1412.000000	7.889129
1411.000000	7.923345
1410.000000	7.917707
1409.000000	7.911393
1408.000000	7.932900
1407.000000	7.950786
1406.000000	7.957349
1405.000000	7.986908
1404.000000	7.996536
1403.000000	7.998789
1402.000000	8.005651
1401.000000	8.008836
1400.000000	8.036353
1399.000000	8.024561
1398.000000	8.016732
1397.000000	8.008520
1396.000000	8.045869
1395.000000	8.061394
1394.000000	8.046020
1393.000000	8.070041
1392.000000	8.074085
1391.000000	8.066528
1390.000000	8.088582
1389.000000	8.087758
1388.000000	8.095170
1387.000000	8.106050
1386.000000	8.141901
1385.000000	8.124571
1384.000000	8.143179
1383.000000	8.139036
1382.000000	8.139780
1381.000000	8.128635
1380.000000	8.151181
1379.000000	8.185571
1378.000000	8.194834
1377.000000	8.163812
1376.000000	8.177782
1375.000000	8.200035
1374.000000	8.200532
1373.000000	8.207738
1372.000000	8.205756
1371.000000	8.208207
1370.000000	8.226883
1369.000000	8.252597
1368.000000	8.248569
1367.000000	8.256343
1366.000000	8.276007
1365.000000	8.251859
1364.000000	8.265983
1363.000000	8.302576
1362.000000	8.293312
1361.000000	8.289764
1360.000000	8.324208
1359.000000	8.338436
1358.000000	8.342597
1357.000000	8.355974
1356.000000	8.367192
1355.000000	8.359672
1354.000000	8.353366
1353.000000	8.360029
1352.000000	8.378951
1351.000000	8.385440
1350.000000	8.401562
1349.000000	8.409120
1348.000000	8.428744
1347.000000	8.434011
1346.000000	8.425644
1345.000000	8.430011
1344.000000	8.444505
1343.000000	8.454689
1342.000000	8.459239
1341.000000	8.465280
1340.000000	8.463549
1339.000000	8.466335
1338.000000	8.482382
1337.000000	8.484900
1336.000000	8.495088
1335.000000	8.492056
1334.000000	8.497136
1333.000000	8.508069
1332.000000	8.518151
1331.000000	8.517894
1330.000000	8.523108
1329.000000	8.544850
1328.000000	8.551700
1327.000000	8.550654
1326.000000	8.562240
1325.000000	8.569882
1324.000000	8.579459
1323.000000	8.589349
1322.000000	8.599683
1321.000000	8.599569
1320.000000	8.607547
1319.000000	8.623045
1318.000000	8.633233
1317.000000	8.644598
1316.000000	8.656153
1315.000000	8.656355
1314.000000	8.654150
1313.000000	8.667516
1312.000000	8.676595
1311.000000	8.682042
1310.000000	8.680209
1309.000000	8.703870
1308.000000	8.712891
1307.000000	8.712077
1306.000000	8.726388
1305.000000	8.739198
1304.000000	8.747204
1303.000000	8.743333
1302.000000	8.750140
1301.000000	8.761608
1300.000000	8.774604
1299.000000	8.783045
1298.000000	8.792794
1297.000000	8.804658
1296.000000	8.806943
1295.000000	8.795217
1294.000000	8.817816
1293.000000	8.819535
1292.000000	8.826474
1291.000000	8.845007
1290.000000	8.849552
1289.000000	8.865050
1288.000000	8.875016
1287.000000	8.874137
1286.000000	8.877979
1285.000000	8.884319
1284.000000	8.897186
1283.000000	8.911296
1282.000000	8.921586
1281.000000	8.932975
1280.000000	8.933278
1279.000000	8.944537
1278.000000	8.943282
1277.000000	8.952404
1276.000000	8.959801
1275.000000	8.971102
1274.000000	8.969624
1273.000000	8.989163
1272.000000	9.004381
1271.000000	9.006150
1270.000000	9.007329
1269.000000	9.011048
1268.000000	9.026746
1267.000000	9.047795
1266.000000	9.057127
1265.000000	9.051884
1264.000000	9.053758
1263.000000	9.069176
1262.000000	9.079160
1261.000000	9.093948
1260.000000	9.104048
1259.000000	9.098193
1258.000000	9.102191
1257.000000	9.116515
1256.000000	9.134028
1255.000000	9.138923
1254.000000	9.153751
1253.000000	9.163903
1252.000000	9.172635
1251.000000	9.176973
1250.000000	9.175819
1249.000000	9.181359
1248.000000	9.197590
1247.000000	9.206875
1246.000000	9.216241
1245.000000	9.226106
1244.000000	9.210426
1243.000000	9.229395
1242.000000	9.246937
1241.000000	9.251047
1240.000000	9.265974
1239.000000	9.268510
1238.000000	9.270027
1237.000000	9.278977
1236.000000	9.289476
1235.000000	9.294599
1234.000000	9.309060
1233.000000	9.323153
1232.000000	9.329104
1231.000000	9.316343
1230.000000	9.339142
1229.000000	9.360134
1228.000000	9.356676
1227.000000	9.361483
1226.000000	9.367688
1225.000000	9.386853
1224.000000	9.398758
1223.000000	9.394366
1222.000000	9.418443
1221.000000	9.413021
1220.000000	9.415971
1219.000000	9.426278
1218.000000	9.428635
1217.000000	9.467417
1216.000000	9.478441
1215.000000	9.461106
1214.000000	9.470440
1213.000000	9.484006
1212.000000	9.497285
1211.000000	9.521652
1210.000000	9.494677
1209.000000	9.534045
1208.000000	9.527197
1207.000000	9.539954
1206.000000	9.539433
1205.000000	9.555303
1204.000000	9.563159
1203.000000	9.573276
1202.000000	9.555968
1201.000000	9.589194
1200.000000	9.617089
1199.000000	9.621888
1198.000000	9.604465
1197.000000	9.617153
1196.000000	9.626522
1195.000000	9.626941
1194.000000	9.644437
1193.000000	9.631067
1192.000000	9.667562
1191.000000	9.658486
1190.000000	9.683810
1189.000000	9.690769
1188.000000	9.712582
1187.000000	9.694911
1186.000000	9.700066
1185.000000	9.726905
1184.000000	9.734925
1183.000000	9.759566
1182.000000	9.751340
1181.000000	9.750392
1180.000000	9.756383
1179.000000	9.755114
1178.000000	9.772140
1177.000000	9.803846
1176.000000	9.780624
1175.000000	9.805837
1174.000000	9.836443
1173.000000	9.815960
1172.000000	9.820372
1171.000000	9.837703
1170.000000	9.844726
1169.000000	9.848574
1168.000000	9.854629
1167.000000	9.872140
1166.000000	9.874813
1165.000000	9.901097
1164.000000	9.898636
1163.000000	9.894049
1162.000000	9.913320
1161.000000	9.926804
1160.000000	9.941367
1159.000000	9.919520
1158.000000	9.941503
1157.000000	9.950086
1156.000000	9.956959
1155.000000	9.955480
1154.000000	9.981681
1153.000000	10.001031
1152.000000	10.003991
1151.000000	9.997632
1150.000000	10.013854
1149.000000	9.997590
1148.000000	10.048773
1147.000000	10.036037
1146.000000	10.053465
1145.000000	10.034493
1144.000000	10.047514
1143.000000	10.055285
1142.000000	10.065996
1141.000000	10.084765
1140.000000	10.070829
1139.000000	10.090338
1138.000000	10.102222
1137.000000	10.090918
1136.000000	10.123036
1135.000000	10.131062
1134.000000	10.141891
1133.000000	10.140960
1132.000000	10.152237
1131.000000	10.155266
1130.000000	10.147588
1129.000000	10.172369
1128.000000	10.179251
1127.000000	10.189982
1126.000000	10.211895
1125.000000	10.202409
1124.000000	10.253763
1123.000000	10.227526
1122.000000	10.247825
1121.000000	10.235397
1120.000000	10.256765
1119.000000	10.264256
1118.000000	10.271652
1117.000000	10.278189
1116.000000	10.287713
1115.000000	10.310107
1114.000000	10.300554
1113.000000	10.319564
1112.000000	10.321569
1111.000000	10.325148
1110.000000	10.341269
1109.000000	10.339159
1108.000000	10.354449
1107.000000	10.365641
1106.000000	10.376700
1105.000000	10.379522
1104.000000	10.393618
1103.000000	10.400622
1102.000000	10.417977
1101.000000	10.419667
1100.000000	10.436587
1099.000000	10.416806
1098.000000	10.441176
1097.000000	10.450936
1096.000000	10.454044
1095.000000	10.473693
1094.000000	10.464989
1093.000000	10.458400
1092.000000	10.483256
1091.000000	10.497675
1090.000000	10.490348
1089.000000	10.506798
1088.000000	10.498025
1087.000000	10.528493
1086.000000	10.531385
1085.000000	10.530791
1084.000000	10.556861
1083.000000	10.564840
1082.000000	10.565258
1081.000000	10.571855
1080.000000	10.581144
1079.000000	10.583080
1078.000000	10.601232
1077.000000	10.614576
1076.000000	10.614759
1075.000000	10.639938
1074.000000	10.643961
1073.000000	10.640866
1072.000000	10.642930
1071.000000	10.644785
1070.000000	10.658702
1069.000000	10.672279
1068.000000	10.690898
1067.000000	10.686193
1066.000000	10.692500
1065.000000	10.709486
1064.000000	10.701292
1063.000000	10.702269
1062.000000	10.718863
1061.000000	10.709083
1060.000000	10.723947
1059.000000	10.764723
1058.000000	10.761820
1057.000000	10.754017
1056.000000	10.767752
1055.000000	10.793588
1054.000000	10.811382
1053.000000	10.801387
1052.000000	10.794779
1051.000000	10.811098
1050.000000	10.815252
1049.000000	10.819267
1048.000000	10.842255
1047.000000	10.875137
1046.000000	10.872046
1045.000000	10.855696
1044.000000	10.869707
1043.000000	10.883685
1042.000000	10.888047
1041.000000	10.901120
1040.000000	10.912023
1039.000000	10.907047
1038.000000	10.931857
1037.000000	10.955410
1036.000000	10.950228
1035.000000	10.956381
1034.000000	10.952602
1033.000000	10.963427
1032.000000	10.976941
1031.000000	11.000459
1030.000000	11.004735
1029.000000	11.001967
1028.000000	11.003030
1027.000000	11.014385
1026.000000	11.043188
1025.000000	11.018976
1024.000000	11.006802
1023.000000	11.039526
1022.000000	11.067139
1021.000000	11.079527
1020.000000	11.093289
1019.000000	11.088404
1018.000000	11.094974
1017.000000	11.106805
1016.000000	11.111825
1015.000000	11.120762
1014.000000	11.140580
1013.000000	11.157957
1012.000000	11.165286
1011.000000	11.171540
1010.000000	11.162053
1009.000000	11.155204
1008.000000	11.166370
1007.000000	11.201734
1006.000000	11.208932
1005.000000	11.194033
1004.000000	11.207685
1003.000000	11.216685
1002.000000	11.219959
1001.000000	11.248916
1000.000000	11.258681
999.000000	11.278814
998.000000	11.296995
997.000000	11.275448
996.000000	11.274026
995.000000	11.300623
994.000000	11.308336
993.000000	11.298632
992.000000	11.307833
991.000000	11.349565
990.000000	11.343239
989.000000	11.380545
988.000000	11.395990
987.000000	11.327119
986.000000	11.372337
985.000000	11.414926
984.000000	11.409994
983.000000	11.407250
982.000000	11.388770
981.000000	11.391720
980.000000	11.388316
979.000000	11.444193
978.000000	11.391795
977.000000	11.419438
976.000000	11.459027
975.000000	11.457416
974.000000	11.430465
973.000000	11.392007
972.000000	11.465805
971.000000	11.506567
970.000000	11.523281
969.000000	11.522788
968.000000	11.525199
967.000000	11.548725
966.000000	11.565772
965.000000	11.566985
964.000000	11.556439
963.000000	11.557853
962.000000	11.540719
961.000000	11.580719
960.000000	11.545389
959.000000	11.614686
958.000000	11.609364
957.000000	11.592523
956.000000	11.704177
955.000000	11.615612
954.000000	11.663730
953.000000	11.694496
952.000000	11.687327
951.000000	11.670808
950.000000	11.705219
949.000000	11.638727
948.000000	11.740514
947.000000	11.773860
946.000000	11.701566
945.000000	11.761405
944.000000	11.786171
943.000000	11.801890
942.000000	11.761781
941.000000	11.801317
940.000000	11.779546
939.000000	11.718250
938.000000	11.884843
937.000000	11.836149
936.000000	11.859980
935.000000	11.904960
934.000000	11.908389
933.000000	11.824417
932.000000	11.911481
931.000000	11.969043
930.000000	11.927146
929.000000	11.991092
928.000000	11.926705
927.000000	11.952445
926.000000	11.914705
925.000000	11.864670
924.000000	11.935084
923.000000	11.958005
922.000000	11.908628
921.000000	11.969537
920.000000	12.076330
919.000000	11.911689
918.000000	12.020925
917.000000	12.010634
916.000000	12.036283
915.000000	12.038159
914.000000	12.099448
913.000000	12.094218
912.000000	12.195264
911.000000	12.140599
910.000000	12.125053
909.000000	12.106318
908.000000	12.060338
907.000000	12.078711
906.000000	12.008585
905.000000	12.212028
904.000000	12.221364
903.000000	12.243052
902.000000	12.126453
901.000000	12.440655
900.000000	12.258037
899.000000	12.225905
898.000000	12.266265
897.000000	12.136762
896.000000	12.318909
895.000000	12.267534
894.000000	12.382785
893.000000	12.281688
892.000000	12.329247
891.000000	12.349182
890.000000	12.477548
889.000000	12.398013
888.000000	12.349563
887.000000	12.366353
886.000000	12.380121
885.000000	12.368813
884.000000	12.328310
883.000000	12.468778
882.000000	12.590281
881.000000	12.384269
880.000000	12.459784
879.000000	12.538949
878.000000	12.531496
877.000000	12.467050
876.000000	12.613987
875.000000	12.307139
874.000000	12.453559
873.000000	12.519123
872.000000	12.430698
871.000000	12.727765
870.000000	12.672689
869.000000	12.494457
868.000000	12.373510
867.000000	12.478580
866.000000	12.486130
865.000000	12.827076
864.000000	12.531114
863.000000	12.472332
862.000000	12.442738
861.000000	12.485036
860.000000	12.407117
859.000000	12.210801
858.000000	12.089408
857.000000	12.266175
856.000000	12.199166
855.000000	12.260883
854.000000	12.238767
853.000000	12.194119
852.000000	12.151416
851.000000	12.185065
850.000000	12.175991
849.000000	12.258300
848.000000	12.255221
847.000000	12.230081
846.000000	12.187200
845.000000	12.175596
844.000000	12.168273
843.000000	12.188546
842.000000	12.190821
841.000000	12.226533
840.000000	12.207604
839.000000	12.210102
838.000000	12.174310
837.000000	12.149806
836.000000	12.177073
835.000000	12.162373
834.000000	12.162977
833.000000	12.138536
832.000000	12.129487
831.000000	12.173282
830.000000	12.122943
829.000000	12.102430
828.000000	12.094198
827.000000	12.083766
826.000000	12.062945
825.000000	12.035628
824.000000	12.037590
823.000000	12.036162
822.000000	12.014934
821.000000	12.016471
820.000000	12.011789
819.000000	11.986501
818.000000	11.973457
817.000000	11.947622
816.000000	11.931381
815.000000	11.909369
814.000000	11.899424
813.000000	11.885708
812.000000	11.858187
811.000000	11.852082
810.000000	11.821652
809.000000	11.791420
808.000000	11.785449
807.000000	11.781224
806.000000	11.758169
805.000000	11.717767
804.000000	11.701752
803.000000	11.691957
802.000000	11.651827
801.000000	11.628987
800.000000	11.607495
799.000000	11.587735
798.000000	11.566843
797.000000	11.555040
796.000000	11.531076
795.000000	11.510952
794.000000	11.489556
793.000000	11.455822
792.000000	11.446503
791.000000	11.432448
790.000000	11.401223
789.000000	11.378818
788.000000	11.362786
787.000000	11.346251
786.000000	11.304513
785.000000	11.290179
784.000000	11.279407
783.000000	11.250615
782.000000	11.231752
781.000000	11.197812
780.000000	11.172394
779.000000	11.154452
778.000000	11.139354
777.000000	11.118615
776.000000	11.098158
775.000000	11.077604
774.000000	11.052747
773.000000	11.027851
772.000000	11.007928
771.000000	10.983680
770.000000	10.966311
769.000000	10.939400
768.000000	10.915278
767.000000	10.908338
766.000000	10.883190
765.000000	10.858640
764.000000	10.863644
763.000000	10.842926
762.000000	10.797700
761.000000	10.766810
760.000000	10.756487
759.000000	10.744068
758.000000	10.726626
757.000000	10.699683
756.000000	10.686203
755.000000	10.668316
754.000000	10.647790
753.000000	10.634973
752.000000	10.603477
751.000000	10.576649
750.000000	10.560958
749.000000	10.547419
748.000000	10.530126
747.000000	10.524508
746.000000	10.507695
745.000000	10.489264
744.000000	10.478807
743.000000	10.459914
742.000000	10.443355
741.000000	10.423276
740.000000	10.409558
739.000000	10.393220
738.000000	10.373116
737.000000	10.358218
736.000000	10.344855
735.000000	10.327209
734.000000	10.315272
733.000000	10.302427
732.000000	10.280836
731.000000	10.262094
730.000000	10.244886
729.000000	10.231455
728.000000	10.221649
727.000000	10.204803
726.000000	10.194802
725.000000	10.179247
724.000000	10.162226
723.000000	10.149790
722.000000	10.138069
721.000000	10.125140
720.000000	10.108297
719.000000	10.099149
718.000000	10.079437
717.000000	10.066510
716.000000	10.050258
715.000000	10.036454
714.000000	10.032943
713.000000	10.035229
712.000000	10.023222
711.000000	9.998918
710.000000	9.991622
709.000000	9.978938
708.000000	9.966240
707.000000	9.959324
706.000000	9.947051
705.000000	9.936159
704.000000	9.927051
703.000000	9.916393
702.000000	9.917720
701.000000	9.901663
700.000000	9.889372
699.000000	9.880965
698.000000	9.875313
697.000000	9.870650
696.000000	9.852620
695.000000	9.860504
694.000000	9.850236
693.000000	9.852062
692.000000	9.829166
691.000000	9.826188
690.000000	9.815588
689.000000	9.805652
688.000000	9.801129
687.000000	9.804883
686.000000	9.799522
685.000000	9.791783
684.000000	9.790666
683.000000	9.784546
682.000000	9.783758
681.000000	9.777523
680.000000	9.775199
679.000000	9.771217
678.000000	9.767390
677.000000	9.767956
676.000000	9.765413
675.000000	9.762463
674.000000	9.760215
673.000000	9.759560
672.000000	9.759264
671.000000	9.763378
670.000000	9.757841
669.000000	9.757353
668.000000	9.754079
667.000000	9.755874
666.000000	9.757582
665.000000	9.756696
664.000000	9.763456
663.000000	9.762278
662.000000	9.774243
661.000000	9.775204
660.000000	9.766657
659.000000	9.768308
658.000000	9.772682
657.000000	9.775044
656.000000	9.784717
655.000000	9.796511
654.000000	9.781202
653.000000	9.794314
652.000000	9.797114
651.000000	9.802957
650.000000	9.817616
649.000000	9.821567
648.000000	9.828570
647.000000	9.832279
646.000000	9.838318
645.000000	9.847192
644.000000	9.853820
643.000000	9.871111
642.000000	9.872072
641.000000	9.884321
640.000000	9.896682
639.000000	9.907697
638.000000	9.914278
637.000000	9.927030
636.000000	9.929411
635.000000	9.945699
634.000000	9.960891
633.000000	9.964542
632.000000	9.978208
631.000000	9.986878
630.000000	9.999237
629.000000	10.005945
628.000000	10.016708
627.000000	10.034718
626.000000	10.047084
625.000000	10.062207
624.000000	10.081135
623.000000	10.094233
622.000000	10.107385
621.000000	10.125508
620.000000	10.141139
619.000000	10.157059
618.000000	10.175755
617.000000	10.196704
616.000000	10.210046
615.000000	10.225388
614.000000	10.245555
613.000000	10.261170
612.000000	10.282447
611.000000	10.299457
610.000000	10.327219
609.000000	10.346809
608.000000	10.363801
607.000000	10.385059
606.000000	10.406580
605.000000	10.431502
604.000000	10.450126
603.000000	10.472204
602.000000	10.495840
601.000000	10.518339
600.000000	10.545646
599.000000	10.569015
598.000000	10.594322
597.000000	10.617265
596.000000	10.637151
595.000000	10.664096
594.000000	10.685838
593.000000	10.709847
592.000000	10.737333
591.000000	10.764117
590.000000	10.790149
589.000000	10.819625
588.000000	10.848249
587.000000	10.871484
586.000000	10.899451
585.000000	10.924055
584.000000	10.953214
583.000000	10.982877
582.000000	11.012548
581.000000	11.036283
580.000000	11.063842
579.000000	11.092177
578.000000	11.119771
577.000000	11.153642
576.000000	11.182060
575.000000	11.208429
574.000000	11.242461
573.000000	11.270626
572.000000	11.300046
571.000000	11.327089
570.000000	11.356111
569.000000	11.385007
568.000000	11.417247
567.000000	11.446635
566.000000	11.478754
565.000000	11.506568
564.000000	11.534703
563.000000	11.563573
562.000000	11.595606
561.000000	11.624426
560.000000	11.651495
559.000000	11.684346
558.000000	11.715099
557.000000	11.746864
556.000000	11.774454
555.000000	11.807105
554.000000	11.836107
553.000000	11.861277
552.000000	11.888558
551.000000	11.920583
550.000000	11.950273
549.000000	11.976629
548.000000	12.004269
547.000000	12.036156
546.000000	12.065402
545.000000	12.094489
544.000000	12.122291
543.000000	12.147461
542.000000	12.175440
541.000000	12.203144
540.000000	12.231790
539.000000	12.261881
538.000000	12.286626
537.000000	12.312492
536.000000	12.340570
535.000000	12.362302
534.000000	12.385075
533.000000	12.410242
532.000000	12.434371
531.000000	12.456228
530.000000	12.476102
529.000000	12.496108
528.000000	12.513935
527.000000	12.536723
526.000000	12.561225
525.000000	12.577330
524.000000	12.596900
523.000000	12.613410
522.000000	12.631791
521.000000	12.648901
520.000000	12.664374
519.000000	12.683222
518.000000	12.696206
517.000000	12.708678
516.000000	12.722907
515.000000	12.738684
514.000000	12.751602
513.000000	12.763007
512.000000	12.774767
511.000000	12.786964
510.000000	12.794601
509.000000	12.794941
508.000000	12.794279
507.000000	12.800402
506.000000	12.802563
505.000000	12.806586
504.000000	12.812705
503.000000	12.807675
502.000000	12.808611
501.000000	12.802136
500.000000	12.792222
499.000000	12.785185
498.000000	12.781240
497.000000	12.765825
496.000000	12.754665
495.000000	12.743965
494.000000	12.725059
493.000000	12.705319
492.000000	12.688621
491.000000	12.669200
490.000000	12.645214
489.000000	12.619359
488.000000	12.590755
487.000000	12.563342
486.000000	12.537391
485.000000	12.506308
484.000000	12.473865
483.000000	12.444471
482.000000	12.415025
481.000000	12.378932
480.000000	12.342539
479.000000	12.303139
478.000000	12.265335
477.000000	12.219919
476.000000	12.175019
475.000000	12.130054
474.000000	12.080686
473.000000	12.037052
472.000000	11.984123
471.000000	11.929322
470.000000	11.874075
469.000000	11.815342
468.000000	11.754159
467.000000	11.692664
466.000000	11.628594
465.000000	11.560827
464.000000	11.501146
463.000000	11.431335
462.000000	11.354617
461.000000	11.288016
460.000000	11.215182
459.000000	11.127848
458.000000	11.056923
457.000000	10.969047
456.000000	10.867810
455.000000	10.797062
454.000000	10.718167
453.000000	10.622959
452.000000	10.531247
451.000000	10.429864
450.000000	10.331236
449.000000	10.237897
448.000000	10.135959
447.000000	10.031116
446.000000	9.932966
445.000000	9.822512
444.000000	9.719456
443.000000	9.624968
442.000000	9.516106
441.000000	9.411607
440.000000	9.297358
439.000000	9.182762
438.000000	9.078635
437.000000	8.949105
436.000000	8.847478
435.000000	8.738585
434.000000	8.614617
433.000000	8.506701
432.000000	8.393092
431.000000	8.274907
430.000000	8.155699
429.000000	8.048387
428.000000	7.938315
427.000000	7.828213
426.000000	7.717211
425.000000	7.613107
424.000000	7.504341
423.000000	7.398968
422.000000	7.293792
421.000000	7.190744
420.000000	7.098044
419.000000	7.001257
418.000000	6.907966
417.000000	6.817847
416.000000	6.742609
415.000000	6.661210
414.000000	6.578514
413.000000	6.511984
412.000000	6.449268
411.000000	6.389032
410.000000	6.340261
409.000000	6.281547
408.000000	6.246251
407.000000	6.210057
406.000000	6.180437
405.000000	6.160769
404.000000	6.148703
403.000000	6.142613
402.000000	6.146166
401.000000	6.156708
400.000000	6.171725
399.000000	6.209550
398.000000	6.247366
397.000000	6.295322
396.000000	6.353332
395.000000	6.420865
394.000000	6.501383
393.000000	6.585290
392.000000	6.691146
391.000000	6.797310
390.000000	6.922042
389.000000	7.047878
388.000000	7.194886
387.000000	7.348563
386.000000	7.507907
385.000000	7.675156
384.000000	7.854365
383.000000	8.060298
382.000000	8.242523
381.000000	8.468424
380.000000	8.688956
379.000000	8.924852
378.000000	9.198812
377.000000	9.433701
376.000000	9.697351
375.000000	9.939179
374.000000	10.216061
373.000000	10.456022
372.000000	10.723090
371.000000	11.001340
370.000000	11.279148
369.000000	11.554711
368.000000	11.803189
367.000000	12.069427
366.000000	12.375492
365.000000	12.642706
364.000000	12.922317
363.000000	13.148100
362.000000	13.446707
361.000000	13.699509
360.000000	13.921468
359.000000	14.164522
358.000000	14.383530
357.000000	14.575164
356.000000	14.768904
355.000000	14.939546
354.000000	15.092850
353.000000	15.239888
352.000000	15.369143
351.000000	15.478228
350.000000	15.544621
349.000000	15.593905
348.000000	15.619331
347.000000	15.656082
346.000000	15.635378
345.000000	15.599686
344.000000	15.541932
343.000000	15.409315
342.000000	15.288114
341.000000	15.138024
340.000000	14.973418
339.000000	14.752426
338.000000	14.517608
337.000000	14.241694
336.000000	13.962112
335.000000	13.691233
334.000000	13.385255
333.000000	13.042312
332.000000	12.706501
331.000000	12.337599
330.000000	11.948998
329.000000	11.566304
328.000000	11.195034
327.000000	10.868708
326.000000	10.533696
325.000000	10.165463
324.000000	9.798183
323.000000	9.509413
322.000000	9.227993
321.000000	8.923859
320.000000	8.645251
319.000000	8.378960
318.000000	8.247858
317.000000	8.238067
316.000000	8.052206
315.000000	7.881192
314.000000	7.754188
313.000000	7.623457
312.000000	7.509933
311.000000	7.398004
310.000000	7.320744
309.000000	7.243611
308.000000	7.181838
307.000000	7.134998
306.000000	7.079391
305.000000	7.018568
304.000000	6.983212
303.000000	6.941869
302.000000	6.900705
301.000000	6.869487
300.000000	6.814874
299.000000	6.779679
298.000000	6.772015
297.000000	6.736873
296.000000	6.702496
295.000000	6.683081
294.000000	6.661839
293.000000	6.644849
292.000000	6.630963
291.000000	6.622380
290.000000	6.598925
289.000000	6.571197
288.000000	6.559531
287.000000	6.565187
286.000000	6.563124
285.000000	6.551709
284.000000	6.567954
283.000000	6.591680
282.000000	6.605218
281.000000	6.616626
280.000000	6.634967
279.000000	6.662579
278.000000	6.693882
277.000000	6.734478
276.000000	6.776795
275.000000	6.816093
274.000000	6.853897
273.000000	6.902301
272.000000	6.953602
271.000000	7.011138
270.000000	7.066992
269.000000	7.131520
268.000000	7.206973
267.000000	7.285370
266.000000	7.352617
265.000000	7.418388
264.000000	7.516219
263.000000	7.611058
262.000000	7.691367
261.000000	7.780811
260.000000	7.880377
259.000000	7.985218
258.000000	8.097284
257.000000	8.208000
256.000000	8.322290
255.000000	8.436044
254.000000	8.539030
253.000000	8.636302
252.000000	8.759533
251.000000	8.875876
250.000000	9.012509
