PE UV       SUBTECH     SPECTRUM    ASCII       PEDS        4.00        
   -1
Sample878.Sample.asc
12/04/23
12:44:41.00
12/04/23
12:44:41.00
Analyst
ITO 4/3-A
250.000000
1
Lambda 950
950N6032301
PerkinElmer UV WinLab 5.1.5.0637 / 1.61.00 Lambda 900

0
0
3350/servo 860.8/2
0
0
UV/VIS
1
1
1
RBeamAtt,SBeamAtt,150mm sphere / downward view
0
0
0
0
Program
Program
3350/servo 860.8/2
3350/1 860.8/1
3350/1 860.8/1
0
1
 
 
 
0
 
860.8
319.2
860.8
Front
100
 
S:100 R:100
 
0
0
0
 
0
 
 
 
0
 
 
0
0
0
0
0
 
 
 
 
0
0
#HDR
-1
-1
#GR
nm
%T
1.0
0.0
2500.000000
-1.000000
2251
8
91.983280
-0.003043
#DATA
2500.000000	83.040700
2499.000000	83.440652
2498.000000	83.403311
2497.000000	82.939661
2496.000000	83.332957
2495.000000	83.278461
2494.000000	83.919478
2493.000000	84.157037
2492.000000	83.502105
2491.000000	83.106732
2490.000000	83.498932
2489.000000	83.676988
2488.000000	83.275857
2487.000000	83.755187
2486.000000	82.786129
2485.000000	83.714752
2484.000000	83.275911
2483.000000	83.794322
2482.000000	83.889409
2481.000000	82.890334
2480.000000	83.704027
2479.000000	83.616494
2478.000000	83.255764
2477.000000	82.651386
2476.000000	84.018047
2475.000000	83.159568
2474.000000	83.462038
2473.000000	83.890709
2472.000000	84.407078
2471.000000	84.417788
2470.000000	83.916632
2469.000000	84.540569
2468.000000	83.693381
2467.000000	83.294847
2466.000000	84.081576
2465.000000	83.986918
2464.000000	83.236422
2463.000000	84.270879
2462.000000	84.196703
2461.000000	84.302360
2460.000000	84.194600
2459.000000	83.991127
2458.000000	84.073656
2457.000000	84.013322
2456.000000	84.407942
2455.000000	84.159274
2454.000000	83.265344
2453.000000	84.541543
2452.000000	84.399858
2451.000000	84.423107
2450.000000	83.812632
2449.000000	83.876219
2448.000000	84.303559
2447.000000	84.561878
2446.000000	84.496362
2445.000000	84.344740
2444.000000	84.262096
2443.000000	84.611272
2442.000000	84.773545
2441.000000	84.332170
2440.000000	83.702755
2439.000000	83.750093
2438.000000	83.972984
2437.000000	84.261958
2436.000000	84.394693
2435.000000	84.056393
2434.000000	83.902609
2433.000000	84.455397
2432.000000	84.594822
2431.000000	85.121668
2430.000000	84.663979
2429.000000	85.019652
2428.000000	84.668533
2427.000000	84.946887
2426.000000	85.063744
2425.000000	84.748224
2424.000000	84.318990
2423.000000	84.356835
2422.000000	84.367592
2421.000000	84.207468
2420.000000	84.436902
2419.000000	84.288313
2418.000000	84.021756
2417.000000	84.237669
2416.000000	84.362542
2415.000000	84.502440
2414.000000	84.383579
2413.000000	84.848689
2412.000000	84.623243
2411.000000	84.279950
2410.000000	84.796694
2409.000000	85.168703
2408.000000	84.911540
2407.000000	84.873948
2406.000000	84.791851
2405.000000	84.556658
2404.000000	84.565997
2403.000000	85.016887
2402.000000	85.054196
2401.000000	85.603385
2400.000000	85.381532
2399.000000	84.953281
2398.000000	85.392284
2397.000000	85.448685
2396.000000	85.321759
2395.000000	85.519573
2394.000000	85.566905
2393.000000	85.263704
2392.000000	85.355491
2391.000000	85.123945
2390.000000	84.523496
2389.000000	84.863449
2388.000000	84.881114
2387.000000	85.025567
2386.000000	85.311096
2385.000000	85.101052
2384.000000	85.234613
2383.000000	85.171399
2382.000000	85.127206
2381.000000	84.895795
2380.000000	84.862246
2379.000000	85.264821
2378.000000	85.259331
2377.000000	85.211202
2376.000000	85.401809
2375.000000	85.564598
2374.000000	85.726155
2373.000000	85.361927
2372.000000	85.256896
2371.000000	85.616470
2370.000000	85.451553
2369.000000	85.490201
2368.000000	85.791527
2367.000000	85.794524
2366.000000	85.919363
2365.000000	85.850616
2364.000000	85.636765
2363.000000	85.375123
2362.000000	85.484163
2361.000000	85.689836
2360.000000	85.743413
2359.000000	85.791515
2358.000000	85.608714
2357.000000	85.596337
2356.000000	85.729038
2355.000000	85.475029
2354.000000	85.222292
2353.000000	85.303082
2352.000000	85.537315
2351.000000	85.674134
2350.000000	85.751812
2349.000000	85.581648
2348.000000	85.535576
2347.000000	85.776580
2346.000000	85.682133
2345.000000	85.464989
2344.000000	85.720637
2343.000000	85.527726
2342.000000	85.813047
2341.000000	86.032963
2340.000000	86.069246
2339.000000	85.885164
2338.000000	85.874433
2337.000000	85.893889
2336.000000	85.696507
2335.000000	85.903088
2334.000000	85.977389
2333.000000	85.897340
2332.000000	86.220267
2331.000000	85.939270
2330.000000	86.032807
2329.000000	86.187274
2328.000000	86.089277
2327.000000	86.032073
2326.000000	85.794254
2325.000000	85.972105
2324.000000	86.425224
2323.000000	86.177979
2322.000000	86.093656
2321.000000	85.975949
2320.000000	86.177967
2319.000000	86.240843
2318.000000	86.308689
2317.000000	86.174767
2316.000000	86.122942
2315.000000	86.307632
2314.000000	86.304373
2313.000000	86.140381
2312.000000	86.124978
2311.000000	86.344471
2310.000000	85.896443
2309.000000	85.976373
2308.000000	86.349608
2307.000000	86.258590
2306.000000	86.219406
2305.000000	86.375515
2304.000000	86.357405
2303.000000	86.284801
2302.000000	86.428669
2301.000000	86.364925
2300.000000	86.343919
2299.000000	86.638253
2298.000000	86.887389
2297.000000	86.419264
2296.000000	86.446448
2295.000000	86.935278
2294.000000	86.497435
2293.000000	86.500712
2292.000000	86.823649
2291.000000	86.835411
2290.000000	86.594282
2289.000000	86.551825
2288.000000	86.493024
2287.000000	86.526107
2286.000000	86.690644
2285.000000	86.574110
2284.000000	86.456573
2283.000000	86.381104
2282.000000	86.761903
2281.000000	86.743244
2280.000000	86.675269
2279.000000	86.525151
2278.000000	86.622769
2277.000000	86.710500
2276.000000	86.950423
2275.000000	86.716439
2274.000000	86.840623
2273.000000	86.669308
2272.000000	86.972587
2271.000000	87.080512
2270.000000	86.801576
2269.000000	87.101227
2268.000000	86.909170
2267.000000	86.908256
2266.000000	86.761188
2265.000000	87.042671
2264.000000	87.015903
2263.000000	86.781196
2262.000000	87.178354
2261.000000	87.151709
2260.000000	87.176094
2259.000000	87.014201
2258.000000	87.008678
2257.000000	87.012160
2256.000000	87.185367
2255.000000	87.103206
2254.000000	87.211705
2253.000000	86.908465
2252.000000	87.293603
2251.000000	86.997854
2250.000000	87.226722
2249.000000	87.148101
2248.000000	87.099442
2247.000000	86.849821
2246.000000	87.026128
2245.000000	87.005267
2244.000000	86.970034
2243.000000	87.126226
2242.000000	86.767604
2241.000000	86.964588
2240.000000	87.061837
2239.000000	87.091520
2238.000000	87.055417
2237.000000	87.218351
2236.000000	86.919068
2235.000000	87.057312
2234.000000	87.052919
2233.000000	87.170473
2232.000000	87.155039
2231.000000	87.072235
2230.000000	87.336136
2229.000000	87.006512
2228.000000	87.031537
2227.000000	87.235611
2226.000000	87.234854
2225.000000	87.397958
2224.000000	87.256168
2223.000000	87.339952
2222.000000	87.303604
2221.000000	87.145387
2220.000000	87.166986
2219.000000	87.539905
2218.000000	87.271264
2217.000000	87.335271
2216.000000	87.569833
2215.000000	87.532668
2214.000000	87.350017
2213.000000	87.413282
2212.000000	87.369187
2211.000000	87.427496
2210.000000	87.528115
2209.000000	87.406513
2208.000000	87.566163
2207.000000	87.604531
2206.000000	87.457306
2205.000000	87.743206
2204.000000	87.625406
2203.000000	87.421776
2202.000000	87.638138
2201.000000	87.632369
2200.000000	87.572187
2199.000000	87.725672
2198.000000	87.766362
2197.000000	87.658312
2196.000000	87.696033
2195.000000	87.621528
2194.000000	87.884818
2193.000000	87.857430
2192.000000	87.742138
2191.000000	87.829066
2190.000000	87.702067
2189.000000	87.783602
2188.000000	87.874509
2187.000000	87.776437
2186.000000	87.859060
2185.000000	87.882606
2184.000000	88.051082
2183.000000	87.963280
2182.000000	87.903952
2181.000000	87.970218
2180.000000	87.931789
2179.000000	87.846136
2178.000000	88.009612
2177.000000	88.181134
2176.000000	88.051163
2175.000000	88.131521
2174.000000	88.242978
2173.000000	87.949852
2172.000000	87.955799
2171.000000	88.137046
2170.000000	88.185036
2169.000000	88.120579
2168.000000	88.090853
2167.000000	87.995267
2166.000000	88.108954
2165.000000	88.291356
2164.000000	88.471808
2163.000000	88.340845
2162.000000	88.116697
2161.000000	88.267389
2160.000000	88.322124
2159.000000	88.349806
2158.000000	88.472371
2157.000000	88.417643
2156.000000	88.445042
2155.000000	88.525982
2154.000000	88.509698
2153.000000	88.623461
2152.000000	88.535822
2151.000000	88.668833
2150.000000	88.672941
2149.000000	88.574446
2148.000000	88.565037
2147.000000	88.645811
2146.000000	88.743997
2145.000000	88.527567
2144.000000	88.399612
2143.000000	88.526626
2142.000000	88.495567
2141.000000	88.605852
2140.000000	88.768231
2139.000000	88.833413
2138.000000	88.673128
2137.000000	88.693998
2136.000000	88.763065
2135.000000	88.551145
2134.000000	88.531659
2133.000000	88.704584
2132.000000	88.647699
2131.000000	88.587201
2130.000000	88.665127
2129.000000	88.767667
2128.000000	88.575632
2127.000000	88.578027
2126.000000	88.739952
2125.000000	88.745709
2124.000000	88.588566
2123.000000	88.642094
2122.000000	88.852269
2121.000000	88.739298
2120.000000	88.839343
2119.000000	88.937489
2118.000000	88.854549
2117.000000	88.858300
2116.000000	88.823128
2115.000000	88.892783
2114.000000	88.923443
2113.000000	88.819718
2112.000000	88.832401
2111.000000	88.896166
2110.000000	88.980066
2109.000000	88.975900
2108.000000	89.017568
2107.000000	88.930366
2106.000000	88.907631
2105.000000	89.017442
2104.000000	89.028659
2103.000000	89.020542
2102.000000	88.896547
2101.000000	88.830342
2100.000000	88.975475
2099.000000	89.082646
2098.000000	89.112121
2097.000000	89.232251
2096.000000	89.105478
2095.000000	89.114039
2094.000000	89.172500
2093.000000	88.931252
2092.000000	88.903262
2091.000000	89.021860
2090.000000	89.137323
2089.000000	89.235632
2088.000000	89.246263
2087.000000	89.153373
2086.000000	89.174173
2085.000000	89.163096
2084.000000	89.146957
2083.000000	89.179046
2082.000000	89.203822
2081.000000	89.138621
2080.000000	89.100412
2079.000000	89.169602
2078.000000	89.261402
2077.000000	89.209547
2076.000000	89.211064
2075.000000	89.275488
2074.000000	89.310791
2073.000000	89.276143
2072.000000	89.305702
2071.000000	89.285852
2070.000000	89.274102
2069.000000	89.304814
2068.000000	89.419276
2067.000000	89.513921
2066.000000	89.536588
2065.000000	89.358408
2064.000000	89.329446
2063.000000	89.461469
2062.000000	89.500316
2061.000000	89.575428
2060.000000	89.577254
2059.000000	89.705291
2058.000000	89.623186
2057.000000	89.542091
2056.000000	89.582177
2055.000000	89.560665
2054.000000	89.502819
2053.000000	89.488071
2052.000000	89.497187
2051.000000	89.494123
2050.000000	89.453426
2049.000000	89.480938
2048.000000	89.498088
2047.000000	89.552879
2046.000000	89.573636
2045.000000	89.544834
2044.000000	89.603957
2043.000000	89.633185
2042.000000	89.546572
2041.000000	89.608050
2040.000000	89.601532
2039.000000	89.600810
2038.000000	89.622567
2037.000000	89.568627
2036.000000	89.578028
2035.000000	89.542837
2034.000000	89.568168
2033.000000	89.647315
2032.000000	89.721169
2031.000000	89.728544
2030.000000	89.686956
2029.000000	89.730595
2028.000000	89.737640
2027.000000	89.655113
2026.000000	89.702523
2025.000000	89.690976
2024.000000	89.736849
2023.000000	89.758414
2022.000000	89.710587
2021.000000	89.660924
2020.000000	89.707847
2019.000000	89.660340
2018.000000	89.883102
2017.000000	89.753299
2016.000000	89.757820
2015.000000	89.817043
2014.000000	89.809967
2013.000000	89.829048
2012.000000	89.771397
2011.000000	89.801515
2010.000000	89.781437
2009.000000	89.828665
2008.000000	89.840085
2007.000000	89.834608
2006.000000	89.952520
2005.000000	89.909679
2004.000000	89.902893
2003.000000	89.907797
2002.000000	89.930610
2001.000000	89.897231
2000.000000	89.873285
1999.000000	89.933304
1998.000000	89.928443
1997.000000	89.986377
1996.000000	90.005768
1995.000000	89.932622
1994.000000	90.008141
1993.000000	89.985464
1992.000000	90.014955
1991.000000	89.980869
1990.000000	90.038838
1989.000000	90.039315
1988.000000	90.001212
1987.000000	90.075294
1986.000000	90.058984
1985.000000	90.019133
1984.000000	90.123301
1983.000000	90.096891
1982.000000	90.034910
1981.000000	90.049414
1980.000000	90.043051
1979.000000	90.094517
1978.000000	90.114673
1977.000000	90.094045
1976.000000	90.084147
1975.000000	90.117067
1974.000000	90.179388
1973.000000	90.182590
1972.000000	90.122180
1971.000000	90.171151
1970.000000	90.080288
1969.000000	90.180182
1968.000000	90.251228
1967.000000	90.168716
1966.000000	90.235261
1965.000000	90.203656
1964.000000	90.238170
1963.000000	90.263962
1962.000000	90.255813
1961.000000	90.183878
1960.000000	90.286525
1959.000000	90.261975
1958.000000	90.265507
1957.000000	90.311659
1956.000000	90.295540
1955.000000	90.347155
1954.000000	90.286509
1953.000000	90.327859
1952.000000	90.283773
1951.000000	90.316154
1950.000000	90.432503
1949.000000	90.340783
1948.000000	90.267445
1947.000000	90.286187
1946.000000	90.343778
1945.000000	90.402577
1944.000000	90.375355
1943.000000	90.414994
1942.000000	90.347305
1941.000000	90.388529
1940.000000	90.460293
1939.000000	90.410643
1938.000000	90.395068
1937.000000	90.511354
1936.000000	90.482369
1935.000000	90.427133
1934.000000	90.371809
1933.000000	90.474616
1932.000000	90.535920
1931.000000	90.507416
1930.000000	90.500224
1929.000000	90.562711
1928.000000	90.509291
1927.000000	90.563371
1926.000000	90.560203
1925.000000	90.486838
1924.000000	90.593756
1923.000000	90.544343
1922.000000	90.577614
1921.000000	90.540004
1920.000000	90.688082
1919.000000	90.626482
1918.000000	90.608814
1917.000000	90.609711
1916.000000	90.654332
1915.000000	90.608739
1914.000000	90.601914
1913.000000	90.644765
1912.000000	90.606032
1911.000000	90.638115
1910.000000	90.680635
1909.000000	90.722067
1908.000000	90.688662
1907.000000	90.703580
1906.000000	90.685130
1905.000000	90.654251
1904.000000	90.726922
1903.000000	90.717145
1902.000000	90.741965
1901.000000	90.767245
1900.000000	90.731491
1899.000000	90.769178
1898.000000	90.794024
1897.000000	90.780596
1896.000000	90.811833
1895.000000	90.844444
1894.000000	90.816923
1893.000000	90.748921
1892.000000	90.760136
1891.000000	90.814245
1890.000000	90.868010
1889.000000	90.908629
1888.000000	90.865490
1887.000000	90.806972
1886.000000	90.870581
1885.000000	90.921682
1884.000000	90.960032
1883.000000	90.978820
1882.000000	90.938708
1881.000000	90.900761
1880.000000	90.911258
1879.000000	90.897165
1878.000000	90.873363
1877.000000	90.896709
1876.000000	90.928401
1875.000000	90.946687
1874.000000	90.916332
1873.000000	90.961503
1872.000000	91.012668
1871.000000	91.040225
1870.000000	91.029420
1869.000000	91.021490
1868.000000	91.050668
1867.000000	90.997615
1866.000000	90.954512
1865.000000	90.978621
1864.000000	90.977454
1863.000000	91.005785
1862.000000	91.076707
1861.000000	91.095884
1860.000000	91.075428
1859.000000	91.051377
1858.000000	91.047972
1857.000000	91.061924
1856.000000	91.087734
1855.000000	91.154034
1854.000000	91.157199
1853.000000	91.144089
1852.000000	91.201660
1851.000000	91.185523
1850.000000	91.212741
1849.000000	91.291908
1848.000000	91.269841
1847.000000	91.245294
1846.000000	91.228500
1845.000000	91.155129
1844.000000	91.128792
1843.000000	91.183457
1842.000000	91.243977
1841.000000	91.274205
1840.000000	91.309069
1839.000000	91.271334
1838.000000	91.196520
1837.000000	91.150359
1836.000000	91.101324
1835.000000	91.154299
1834.000000	91.145933
1833.000000	91.106875
1832.000000	91.207310
1831.000000	91.259677
1830.000000	91.198280
1829.000000	91.191650
1828.000000	91.214131
1827.000000	91.226199
1826.000000	91.251148
1825.000000	91.252343
1824.000000	91.244605
1823.000000	91.218870
1822.000000	91.232702
1821.000000	91.249061
1820.000000	91.243119
1819.000000	91.250203
1818.000000	91.269502
1817.000000	91.279091
1816.000000	91.286496
1815.000000	91.299065
1814.000000	91.299958
1813.000000	91.300892
1812.000000	91.296104
1811.000000	91.279275
1810.000000	91.276618
1809.000000	91.298442
1808.000000	91.323148
1807.000000	91.310435
1806.000000	91.330497
1805.000000	91.360649
1804.000000	91.346420
1803.000000	91.344411
1802.000000	91.348566
1801.000000	91.394737
1800.000000	91.400753
1799.000000	91.412433
1798.000000	91.395031
1797.000000	91.347696
1796.000000	91.364740
1795.000000	91.351929
1794.000000	91.356224
1793.000000	91.404440
1792.000000	91.389623
1791.000000	91.397018
1790.000000	91.402528
1789.000000	91.373452
1788.000000	91.390292
1787.000000	91.373794
1786.000000	91.401558
1785.000000	91.438931
1784.000000	91.435156
1783.000000	91.432114
1782.000000	91.467834
1781.000000	91.457720
1780.000000	91.445086
1779.000000	91.476891
1778.000000	91.482123
1777.000000	91.483192
1776.000000	91.470648
1775.000000	91.479455
1774.000000	91.471701
1773.000000	91.446830
1772.000000	91.464716
1771.000000	91.482018
1770.000000	91.522543
1769.000000	91.522953
1768.000000	91.528050
1767.000000	91.544574
1766.000000	91.538054
1765.000000	91.545563
1764.000000	91.531379
1763.000000	91.528282
1762.000000	91.530667
1761.000000	91.531458
1760.000000	91.511662
1759.000000	91.511847
1758.000000	91.548296
1757.000000	91.551304
1756.000000	91.545869
1755.000000	91.578087
1754.000000	91.592185
1753.000000	91.582665
1752.000000	91.623817
1751.000000	91.587577
1750.000000	91.570938
1749.000000	91.591588
1748.000000	91.582720
1747.000000	91.599549
1746.000000	91.598995
1745.000000	91.615509
1744.000000	91.605444
1743.000000	91.615782
1742.000000	91.619869
1741.000000	91.616858
1740.000000	91.635101
1739.000000	91.641892
1738.000000	91.616846
1737.000000	91.612638
1736.000000	91.640464
1735.000000	91.690644
1734.000000	91.675112
1733.000000	91.657971
1732.000000	91.636562
1731.000000	91.672273
1730.000000	91.676197
1729.000000	91.659207
1728.000000	91.661140
1727.000000	91.683646
1726.000000	91.690556
1725.000000	91.675215
1724.000000	91.725832
1723.000000	91.688570
1722.000000	91.704048
1721.000000	91.679944
1720.000000	91.768446
1719.000000	91.703041
1718.000000	91.694530
1717.000000	91.700832
1716.000000	91.701382
1715.000000	91.687966
1714.000000	91.725642
1713.000000	91.720955
1712.000000	91.722718
1711.000000	91.701378
1710.000000	91.713409
1709.000000	91.758600
1708.000000	91.735000
1707.000000	91.702437
1706.000000	91.699181
1705.000000	91.720190
1704.000000	91.745117
1703.000000	91.735764
1702.000000	91.733506
1701.000000	91.740682
1700.000000	91.762984
1699.000000	91.773546
1698.000000	91.764707
1697.000000	91.761016
1696.000000	91.777682
1695.000000	91.783982
1694.000000	91.785892
1693.000000	91.757319
1692.000000	91.735110
1691.000000	91.777700
1690.000000	91.794394
1689.000000	91.744525
1688.000000	91.800354
1687.000000	91.821976
1686.000000	91.795271
1685.000000	91.845859
1684.000000	91.978801
1683.000000	91.957644
1682.000000	91.958451
1681.000000	91.957538
1680.000000	91.976229
1679.000000	91.976195
1678.000000	91.975143
1677.000000	91.983280
1676.000000	91.977660
1675.000000	91.932488
1674.000000	91.848180
1673.000000	91.801718
1672.000000	91.839696
1671.000000	91.857604
1670.000000	91.889002
1669.000000	91.975726
1668.000000	91.801854
1667.000000	91.813838
1666.000000	91.794652
1665.000000	91.824927
1664.000000	91.805282
1663.000000	91.838023
1662.000000	91.822913
1661.000000	91.809455
1660.000000	91.799923
1659.000000	91.813743
1658.000000	91.833018
1657.000000	91.842713
1656.000000	91.829683
1655.000000	91.823415
1654.000000	91.822551
1653.000000	91.845094
1652.000000	91.828328
1651.000000	91.840797
1650.000000	91.866478
1649.000000	91.856197
1648.000000	91.858026
1647.000000	91.848951
1646.000000	91.850006
1645.000000	91.862312
1644.000000	91.825259
1643.000000	91.865695
1642.000000	91.879205
1641.000000	91.856895
1640.000000	91.855067
1639.000000	91.839520
1638.000000	91.844968
1637.000000	91.875136
1636.000000	91.852574
1635.000000	91.841999
1634.000000	91.833463
1633.000000	91.881946
1632.000000	91.858466
1631.000000	91.872834
1630.000000	91.888435
1629.000000	91.888512
1628.000000	91.889977
1627.000000	91.877204
1626.000000	91.870787
1625.000000	91.872323
1624.000000	91.877266
1623.000000	91.875525
1622.000000	91.871345
1621.000000	91.882602
1620.000000	91.864117
1619.000000	91.866271
1618.000000	91.884607
1617.000000	91.882406
1616.000000	91.884541
1615.000000	91.879957
1614.000000	91.881160
1613.000000	91.886876
1612.000000	91.875764
1611.000000	91.855062
1610.000000	91.853134
1609.000000	91.868880
1608.000000	91.898058
1607.000000	91.900103
1606.000000	91.876219
1605.000000	91.876543
1604.000000	91.902517
1603.000000	91.906530
1602.000000	91.893915
1601.000000	91.891716
1600.000000	91.877980
1599.000000	91.879904
1598.000000	91.877506
1597.000000	91.873549
1596.000000	91.877631
1595.000000	91.886174
1594.000000	91.889556
1593.000000	91.885188
1592.000000	91.886474
1591.000000	91.880320
1590.000000	91.881528
1589.000000	91.888919
1588.000000	91.886139
1587.000000	91.884331
1586.000000	91.884450
1585.000000	91.874503
1584.000000	91.882958
1583.000000	91.876222
1582.000000	91.864329
1581.000000	91.880325
1580.000000	91.887986
1579.000000	91.892109
1578.000000	91.885284
1577.000000	91.866882
1576.000000	91.867194
1575.000000	91.887646
1574.000000	91.893289
1573.000000	91.874702
1572.000000	91.861445
1571.000000	91.870410
1570.000000	91.870623
1569.000000	91.862110
1568.000000	91.868989
1567.000000	91.861676
1566.000000	91.867307
1565.000000	91.862621
1564.000000	91.875164
1563.000000	91.862984
1562.000000	91.851666
1561.000000	91.861022
1560.000000	91.864225
1559.000000	91.865764
1558.000000	91.871613
1557.000000	91.870147
1556.000000	91.880355
1555.000000	91.875350
1554.000000	91.856711
1553.000000	91.863283
1552.000000	91.878881
1551.000000	91.851081
1550.000000	91.849465
1549.000000	91.862754
1548.000000	91.876040
1547.000000	91.859282
1546.000000	91.843291
1545.000000	91.841906
1544.000000	91.846679
1543.000000	91.846206
1542.000000	91.850828
1541.000000	91.840903
1540.000000	91.845268
1539.000000	91.827839
1538.000000	91.844453
1537.000000	91.844482
1536.000000	91.831273
1535.000000	91.823548
1534.000000	91.819292
1533.000000	91.829303
1532.000000	91.822985
1531.000000	91.832933
1530.000000	91.821737
1529.000000	91.818801
1528.000000	91.832164
1527.000000	91.829397
1526.000000	91.813476
1525.000000	91.827477
1524.000000	91.830762
1523.000000	91.798762
1522.000000	91.804227
1521.000000	91.808391
1520.000000	91.825910
1519.000000	91.805068
1518.000000	91.806698
1517.000000	91.813294
1516.000000	91.815106
1515.000000	91.792146
1514.000000	91.804518
1513.000000	91.798386
1512.000000	91.794630
1511.000000	91.810122
1510.000000	91.790234
1509.000000	91.768025
1508.000000	91.776790
1507.000000	91.772986
1506.000000	91.785712
1505.000000	91.765382
1504.000000	91.780252
1503.000000	91.792155
1502.000000	91.787048
1501.000000	91.779006
1500.000000	91.780434
1499.000000	91.774959
1498.000000	91.760661
1497.000000	91.760753
1496.000000	91.782429
1495.000000	91.778368
1494.000000	91.740177
1493.000000	91.753234
1492.000000	91.735225
1491.000000	91.752183
1490.000000	91.747847
1489.000000	91.743579
1488.000000	91.740294
1487.000000	91.729536
1486.000000	91.735747
1485.000000	91.725763
1484.000000	91.716928
1483.000000	91.709886
1482.000000	91.733669
1481.000000	91.714774
1480.000000	91.765297
1479.000000	91.764448
1478.000000	91.751050
1477.000000	91.778471
1476.000000	91.786205
1475.000000	91.775305
1474.000000	91.785927
1473.000000	91.772338
1472.000000	91.757581
1471.000000	91.745127
1470.000000	91.760199
1469.000000	91.765350
1468.000000	91.744561
1467.000000	91.771482
1466.000000	91.765004
1465.000000	91.734613
1464.000000	91.742742
1463.000000	91.609915
1462.000000	91.594658
1461.000000	91.587415
1460.000000	91.575274
1459.000000	91.602386
1458.000000	91.726287
1457.000000	91.744289
1456.000000	91.738092
1455.000000	91.724525
1454.000000	91.728771
1453.000000	91.739912
1452.000000	91.744173
1451.000000	91.722478
1450.000000	91.732407
1449.000000	91.700825
1448.000000	91.734118
1447.000000	91.714711
1446.000000	91.726071
1445.000000	91.710012
1444.000000	91.694384
1443.000000	91.695096
1442.000000	91.697980
1441.000000	91.719100
1440.000000	91.698140
1439.000000	91.677865
1438.000000	91.683588
1437.000000	91.681257
1436.000000	91.680948
1435.000000	91.673213
1434.000000	91.691043
1433.000000	91.666580
1432.000000	91.664297
1431.000000	91.655021
1430.000000	91.652269
1429.000000	91.638661
1428.000000	91.629525
1427.000000	91.617956
1426.000000	91.616706
1425.000000	91.614489
1424.000000	91.603128
1423.000000	91.591705
1422.000000	91.596507
1421.000000	91.452092
1420.000000	91.444225
1419.000000	91.396132
1418.000000	91.444670
1417.000000	91.559284
1416.000000	91.544769
1415.000000	91.551005
1414.000000	91.561317
1413.000000	91.549063
1412.000000	91.551474
1411.000000	91.527251
1410.000000	91.537999
1409.000000	91.558962
1408.000000	91.502093
1407.000000	91.554974
1406.000000	91.562967
1405.000000	91.534571
1404.000000	91.537219
1403.000000	91.528018
1402.000000	91.520671
1401.000000	91.526641
1400.000000	91.520882
1399.000000	91.493800
1398.000000	91.506988
1397.000000	91.455347
1396.000000	91.432551
1395.000000	91.406643
1394.000000	91.438634
1393.000000	91.439664
1392.000000	91.415823
1391.000000	91.426775
1390.000000	91.419342
1389.000000	91.410531
1388.000000	91.394320
1387.000000	91.397104
1386.000000	91.397019
1385.000000	91.383637
1384.000000	91.390131
1383.000000	91.389184
1382.000000	91.394050
1381.000000	91.395069
1380.000000	91.383734
1379.000000	91.366131
1378.000000	91.347279
1377.000000	91.348867
1376.000000	91.356177
1375.000000	91.348788
1374.000000	91.350938
1373.000000	91.363839
1372.000000	91.359507
1371.000000	91.346224
1370.000000	91.338996
1369.000000	91.330570
1368.000000	91.339644
1367.000000	91.332257
1366.000000	91.335357
1365.000000	91.351067
1364.000000	91.345334
1363.000000	91.401666
1362.000000	91.401536
1361.000000	91.396917
1360.000000	91.318044
1359.000000	91.268789
1358.000000	91.393188
1357.000000	91.382437
1356.000000	91.351725
1355.000000	91.349876
1354.000000	91.349648
1353.000000	91.353070
1352.000000	91.316395
1351.000000	91.256133
1350.000000	91.249273
1349.000000	91.233844
1348.000000	91.222182
1347.000000	91.229030
1346.000000	91.224969
1345.000000	91.208494
1344.000000	91.203702
1343.000000	91.202359
1342.000000	91.193772
1341.000000	91.191149
1340.000000	91.187406
1339.000000	91.175195
1338.000000	91.174567
1337.000000	91.183037
1336.000000	91.177738
1335.000000	91.166935
1334.000000	91.159392
1333.000000	91.154405
1332.000000	91.145985
1331.000000	91.146452
1330.000000	91.145113
1329.000000	91.130389
1328.000000	91.125196
1327.000000	91.125889
1326.000000	91.122355
1325.000000	91.119877
1324.000000	91.121388
1323.000000	91.126038
1322.000000	91.113150
1321.000000	91.104553
1320.000000	91.108166
1319.000000	91.110538
1318.000000	91.100626
1317.000000	91.077697
1316.000000	91.067723
1315.000000	91.072889
1314.000000	91.070014
1313.000000	91.060959
1312.000000	91.052921
1311.000000	91.050986
1310.000000	91.041206
1309.000000	91.030699
1308.000000	91.025301
1307.000000	91.027398
1306.000000	91.039680
1305.000000	91.025555
1304.000000	91.014525
1303.000000	91.018642
1302.000000	91.004479
1301.000000	91.002422
1300.000000	90.998299
1299.000000	90.982639
1298.000000	90.977957
1297.000000	90.985501
1296.000000	90.988417
1295.000000	90.975549
1294.000000	90.967835
1293.000000	90.966972
1292.000000	90.964241
1291.000000	90.953800
1290.000000	90.937401
1289.000000	90.935523
1288.000000	90.951347
1287.000000	90.942262
1286.000000	90.933267
1285.000000	90.931897
1284.000000	90.929090
1283.000000	90.914344
1282.000000	90.903503
1281.000000	90.902219
1280.000000	90.896881
1279.000000	90.893936
1278.000000	90.889745
1277.000000	90.879331
1276.000000	90.869459
1275.000000	90.865214
1274.000000	90.862041
1273.000000	90.851776
1272.000000	90.851284
1271.000000	90.849600
1270.000000	90.847415
1269.000000	90.842055
1268.000000	90.825738
1267.000000	90.822641
1266.000000	90.818513
1265.000000	90.807481
1264.000000	90.803561
1263.000000	90.803334
1262.000000	90.803525
1261.000000	90.802206
1260.000000	90.794459
1259.000000	90.786946
1258.000000	90.769325
1257.000000	90.763191
1256.000000	90.776658
1255.000000	90.760753
1254.000000	90.750793
1253.000000	90.749303
1252.000000	90.754549
1251.000000	90.759207
1250.000000	90.734184
1249.000000	90.733738
1248.000000	90.743265
1247.000000	90.722794
1246.000000	90.715953
1245.000000	90.723914
1244.000000	90.709240
1243.000000	90.703384
1242.000000	90.704953
1241.000000	90.689010
1240.000000	90.705222
1239.000000	90.690948
1238.000000	90.689744
1237.000000	90.683877
1236.000000	90.686136
1235.000000	90.676425
1234.000000	90.664458
1233.000000	90.656201
1232.000000	90.647931
1231.000000	90.642253
1230.000000	90.637716
1229.000000	90.635331
1228.000000	90.639146
1227.000000	90.627601
1226.000000	90.635430
1225.000000	90.618572
1224.000000	90.611778
1223.000000	90.612688
1222.000000	90.612329
1221.000000	90.585142
1220.000000	90.589289
1219.000000	90.591572
1218.000000	90.585850
1217.000000	90.578928
1216.000000	90.575359
1215.000000	90.564686
1214.000000	90.560083
1213.000000	90.581263
1212.000000	90.551739
1211.000000	90.550058
1210.000000	90.538169
1209.000000	90.532545
1208.000000	90.534580
1207.000000	90.522835
1206.000000	90.519329
1205.000000	90.510669
1204.000000	90.511649
1203.000000	90.503270
1202.000000	90.491703
1201.000000	90.489508
1200.000000	90.496233
1199.000000	90.483330
1198.000000	90.482856
1197.000000	90.480285
1196.000000	90.470437
1195.000000	90.457961
1194.000000	90.453948
1193.000000	90.448812
1192.000000	90.429545
1191.000000	90.440738
1190.000000	90.425091
1189.000000	90.439546
1188.000000	90.428549
1187.000000	90.415471
1186.000000	90.436593
1185.000000	90.415897
1184.000000	90.394541
1183.000000	90.400110
1182.000000	90.392182
1181.000000	90.404491
1180.000000	90.379019
1179.000000	90.368907
1178.000000	90.382012
1177.000000	90.363336
1176.000000	90.372853
1175.000000	90.364431
1174.000000	90.350727
1173.000000	90.340048
1172.000000	90.343174
1171.000000	90.339517
1170.000000	90.331437
1169.000000	90.314667
1168.000000	90.314225
1167.000000	90.310602
1166.000000	90.310049
1165.000000	90.291348
1164.000000	90.307417
1163.000000	90.305384
1162.000000	90.274843
1161.000000	90.288830
1160.000000	90.294155
1159.000000	90.270889
1158.000000	90.293721
1157.000000	90.263621
1156.000000	90.276977
1155.000000	90.267238
1154.000000	90.258647
1153.000000	90.248515
1152.000000	90.249067
1151.000000	90.237066
1150.000000	90.223033
1149.000000	90.232851
1148.000000	90.230327
1147.000000	90.211879
1146.000000	90.215977
1145.000000	90.225304
1144.000000	90.203024
1143.000000	90.190220
1142.000000	90.191509
1141.000000	90.191164
1140.000000	90.198871
1139.000000	90.178140
1138.000000	90.174592
1137.000000	90.186179
1136.000000	90.177605
1135.000000	90.170245
1134.000000	90.173983
1133.000000	90.164047
1132.000000	90.147397
1131.000000	90.138845
1130.000000	90.122620
1129.000000	90.150643
1128.000000	90.139917
1127.000000	90.107680
1126.000000	90.123599
1125.000000	90.129909
1124.000000	90.115743
1123.000000	90.103743
1122.000000	90.106236
1121.000000	90.095044
1120.000000	90.109051
1119.000000	90.091438
1118.000000	90.091015
1117.000000	90.078828
1116.000000	90.075827
1115.000000	90.077681
1114.000000	90.077403
1113.000000	90.067744
1112.000000	90.060576
1111.000000	90.054673
1110.000000	90.057734
1109.000000	90.055092
1108.000000	90.050593
1107.000000	90.042807
1106.000000	90.035658
1105.000000	90.045344
1104.000000	90.023392
1103.000000	90.017795
1102.000000	90.019047
1101.000000	90.021919
1100.000000	90.013811
1099.000000	90.001998
1098.000000	89.999421
1097.000000	90.003006
1096.000000	89.980738
1095.000000	89.979398
1094.000000	89.992769
1093.000000	89.977520
1092.000000	90.008731
1091.000000	90.062507
1090.000000	90.066063
1089.000000	90.060331
1088.000000	90.053755
1087.000000	90.044572
1086.000000	90.039183
1085.000000	90.039326
1084.000000	90.044894
1083.000000	90.044496
1082.000000	90.034244
1081.000000	90.031621
1080.000000	90.017739
1079.000000	90.021785
1078.000000	90.020349
1077.000000	90.012359
1076.000000	90.000763
1075.000000	90.007879
1074.000000	90.016017
1073.000000	90.001609
1072.000000	89.994449
1071.000000	89.987099
1070.000000	89.987128
1069.000000	89.981213
1068.000000	89.973784
1067.000000	89.968667
1066.000000	89.967120
1065.000000	89.964327
1064.000000	89.967591
1063.000000	89.963228
1062.000000	89.998989
1061.000000	90.051741
1060.000000	90.047728
1059.000000	90.047167
1058.000000	90.051148
1057.000000	90.015914
1056.000000	89.977199
1055.000000	89.963332
1054.000000	89.865991
1053.000000	89.859351
1052.000000	89.923801
1051.000000	89.921361
1050.000000	89.924345
1049.000000	89.922584
1048.000000	89.920158
1047.000000	89.907852
1046.000000	89.904334
1045.000000	89.909819
1044.000000	89.912294
1043.000000	89.912692
1042.000000	89.903679
1041.000000	89.901897
1040.000000	89.898650
1039.000000	89.894167
1038.000000	89.894632
1037.000000	89.849251
1036.000000	89.804611
1035.000000	89.807995
1034.000000	89.806499
1033.000000	89.808851
1032.000000	89.803301
1031.000000	89.782456
1030.000000	89.785614
1029.000000	89.801358
1028.000000	89.786444
1027.000000	89.786395
1026.000000	89.783372
1025.000000	89.773073
1024.000000	89.780829
1023.000000	89.786194
1022.000000	89.790228
1021.000000	89.781093
1020.000000	89.766773
1019.000000	89.770511
1018.000000	89.783686
1017.000000	89.781430
1016.000000	89.769701
1015.000000	89.746919
1014.000000	89.742541
1013.000000	89.759871
1012.000000	89.746840
1011.000000	89.776006
1010.000000	89.778854
1009.000000	89.756572
1008.000000	89.771076
1007.000000	89.760635
1006.000000	89.736075
1005.000000	89.743468
1004.000000	89.747506
1003.000000	89.739342
1002.000000	89.740724
1001.000000	89.753671
1000.000000	89.741164
999.000000	89.740802
998.000000	89.741327
997.000000	89.759288
996.000000	89.758114
995.000000	89.725143
994.000000	89.720428
993.000000	89.736258
992.000000	89.721754
991.000000	89.714838
990.000000	89.728731
989.000000	89.729572
988.000000	89.719231
987.000000	89.714108
986.000000	89.719515
985.000000	89.720312
984.000000	89.725954
983.000000	89.742557
982.000000	89.734269
981.000000	89.722110
980.000000	89.729983
979.000000	89.744428
978.000000	89.735504
977.000000	89.739795
976.000000	89.730024
975.000000	89.692578
974.000000	89.720258
973.000000	89.729382
972.000000	89.745889
971.000000	89.719016
970.000000	89.723135
969.000000	89.827076
968.000000	89.861635
967.000000	89.903815
966.000000	89.890123
965.000000	89.888509
964.000000	89.896951
963.000000	89.884926
962.000000	89.893786
961.000000	89.939104
960.000000	89.817693
959.000000	89.764210
958.000000	89.715908
957.000000	89.738649
956.000000	89.742805
955.000000	89.721836
954.000000	89.727651
953.000000	89.792924
952.000000	89.773377
951.000000	89.745794
950.000000	89.760923
949.000000	89.731124
948.000000	89.736983
947.000000	89.750062
946.000000	89.749378
945.000000	89.728927
944.000000	89.771165
943.000000	89.770267
942.000000	89.754073
941.000000	89.750279
940.000000	89.759155
939.000000	89.760414
938.000000	89.749881
937.000000	89.781455
936.000000	89.783598
935.000000	89.670454
934.000000	89.800208
933.000000	89.741794
932.000000	89.783690
931.000000	89.816893
930.000000	89.833365
929.000000	89.783092
928.000000	89.841253
927.000000	89.813291
926.000000	89.806451
925.000000	89.780686
924.000000	89.785413
923.000000	89.818285
922.000000	89.879129
921.000000	89.731707
920.000000	89.763391
919.000000	89.868517
918.000000	89.925814
917.000000	89.970538
916.000000	89.889021
915.000000	89.975861
914.000000	89.910128
913.000000	89.900028
912.000000	89.855200
911.000000	89.833031
910.000000	89.910216
909.000000	89.779461
908.000000	89.865951
907.000000	89.869443
906.000000	89.824750
905.000000	89.833304
904.000000	89.870371
903.000000	89.822930
902.000000	89.800708
901.000000	89.817600
900.000000	89.925842
899.000000	89.824312
898.000000	89.976123
897.000000	89.873525
896.000000	89.926238
895.000000	89.966737
894.000000	89.832454
893.000000	89.888949
892.000000	89.809895
891.000000	89.998865
890.000000	89.896162
889.000000	89.988733
888.000000	89.981270
887.000000	89.814533
886.000000	89.950264
885.000000	89.878135
884.000000	89.910757
883.000000	89.909604
882.000000	89.844418
881.000000	90.094657
880.000000	90.158703
879.000000	90.007245
878.000000	90.050226
877.000000	89.961328
876.000000	89.943738
875.000000	90.000998
874.000000	89.940013
873.000000	89.904343
872.000000	90.010051
871.000000	89.960627
870.000000	90.064656
869.000000	90.031134
868.000000	90.071120
867.000000	89.988485
866.000000	89.983919
865.000000	90.086056
864.000000	90.034192
863.000000	90.050852
862.000000	90.025785
861.000000	90.107737
860.000000	90.004660
859.000000	89.982516
858.000000	89.987492
857.000000	90.052582
856.000000	90.069467
855.000000	89.849878
854.000000	89.931285
853.000000	89.862586
852.000000	89.789005
851.000000	89.897870
850.000000	89.881148
849.000000	90.058860
848.000000	89.954522
847.000000	90.012604
846.000000	89.870423
845.000000	89.961540
844.000000	89.953869
843.000000	89.954970
842.000000	89.989581
841.000000	89.969250
840.000000	89.885507
839.000000	89.903336
838.000000	90.007556
837.000000	90.070762
836.000000	89.967275
835.000000	90.097688
834.000000	90.126313
833.000000	90.077969
832.000000	90.190418
831.000000	90.078563
830.000000	90.004830
829.000000	90.003100
828.000000	90.021776
827.000000	90.010303
826.000000	90.066252
825.000000	90.057159
824.000000	90.124230
823.000000	90.137853
822.000000	90.188935
821.000000	90.152128
820.000000	90.097513
819.000000	90.202821
818.000000	90.170345
817.000000	90.102570
816.000000	90.110138
815.000000	90.175692
814.000000	90.211404
813.000000	90.169240
812.000000	90.187239
811.000000	90.203557
810.000000	90.203518
809.000000	90.233576
808.000000	90.256875
807.000000	90.300007
806.000000	90.321760
805.000000	90.297354
804.000000	90.256807
803.000000	90.256063
802.000000	90.320711
801.000000	90.293876
800.000000	90.264096
799.000000	90.313475
798.000000	90.267107
797.000000	90.295335
796.000000	90.362008
795.000000	90.319185
794.000000	90.319661
793.000000	90.364241
792.000000	90.366297
791.000000	90.346818
790.000000	90.354747
789.000000	90.392161
788.000000	90.411021
787.000000	90.405581
786.000000	90.448265
785.000000	90.456857
784.000000	90.525801
783.000000	90.542893
782.000000	90.506475
781.000000	90.555468
780.000000	90.556831
779.000000	90.554638
778.000000	90.559001
777.000000	90.602558
776.000000	90.601824
775.000000	90.562031
774.000000	90.558615
773.000000	90.585887
772.000000	90.606423
771.000000	90.644415
770.000000	90.657906
769.000000	90.627643
768.000000	90.635429
767.000000	90.649696
766.000000	90.634808
765.000000	90.667759
764.000000	90.690613
763.000000	90.699502
762.000000	90.681265
761.000000	90.687130
760.000000	90.700097
759.000000	90.715680
758.000000	90.744077
757.000000	90.803262
756.000000	90.771631
755.000000	90.735359
754.000000	90.767436
753.000000	90.747222
752.000000	90.749396
751.000000	90.806458
750.000000	90.767762
749.000000	90.847828
748.000000	90.867208
747.000000	90.856607
746.000000	90.872603
745.000000	90.895948
744.000000	90.867466
743.000000	90.878410
742.000000	90.901447
741.000000	90.887559
740.000000	90.924020
739.000000	90.908124
738.000000	90.919123
737.000000	90.919898
736.000000	90.927104
735.000000	90.906410
734.000000	90.929311
733.000000	90.942969
732.000000	90.929329
731.000000	90.960543
730.000000	91.006093
729.000000	90.950728
728.000000	90.957657
727.000000	91.019147
726.000000	90.989400
725.000000	90.976927
724.000000	90.980270
723.000000	90.996860
722.000000	91.032961
721.000000	91.049185
720.000000	91.024906
719.000000	91.071589
718.000000	91.059181
717.000000	91.043105
716.000000	91.020548
715.000000	91.073487
714.000000	91.121565
713.000000	91.087170
712.000000	91.070136
711.000000	91.103001
710.000000	91.060616
709.000000	91.107889
708.000000	91.049079
707.000000	91.092543
706.000000	91.127229
705.000000	91.133215
704.000000	91.117575
703.000000	91.121243
702.000000	91.116145
701.000000	91.108185
700.000000	91.069177
699.000000	91.094066
698.000000	91.166141
697.000000	91.180104
696.000000	91.099004
695.000000	91.127419
694.000000	91.119012
693.000000	91.148286
692.000000	91.147931
691.000000	91.124905
690.000000	91.094471
689.000000	91.089676
688.000000	91.071522
687.000000	91.070550
686.000000	91.082725
685.000000	91.117991
684.000000	91.068707
683.000000	91.068987
682.000000	91.045932
681.000000	91.071446
680.000000	91.040738
679.000000	91.063535
678.000000	91.039488
677.000000	91.068695
676.000000	91.013346
675.000000	91.120087
674.000000	91.051444
673.000000	91.077592
672.000000	91.058348
671.000000	91.072270
670.000000	91.013737
669.000000	91.020558
668.000000	91.023846
667.000000	91.010114
666.000000	91.009656
665.000000	91.031539
664.000000	90.954218
663.000000	90.987623
662.000000	90.920933
661.000000	90.967369
660.000000	90.969051
659.000000	90.975079
658.000000	90.942429
657.000000	90.886237
656.000000	90.901818
655.000000	90.932044
654.000000	90.932746
653.000000	90.925438
652.000000	90.906779
651.000000	90.847813
650.000000	90.860978
649.000000	90.850747
648.000000	90.834191
647.000000	90.800396
646.000000	90.837377
645.000000	90.794409
644.000000	90.793479
643.000000	90.781706
642.000000	90.816945
641.000000	90.751087
640.000000	90.746884
639.000000	90.694513
638.000000	90.704670
637.000000	90.658072
636.000000	90.654107
635.000000	90.605982
634.000000	90.614266
633.000000	90.587000
632.000000	90.573954
631.000000	90.561445
630.000000	90.541545
629.000000	90.504155
628.000000	90.532314
627.000000	90.494884
626.000000	90.487842
625.000000	90.444431
624.000000	90.427542
623.000000	90.416796
622.000000	90.412917
621.000000	90.376920
620.000000	90.357080
619.000000	90.360819
618.000000	90.343405
617.000000	90.303146
616.000000	90.277407
615.000000	90.263482
614.000000	90.224475
613.000000	90.232115
612.000000	90.205554
611.000000	90.180443
610.000000	90.142421
609.000000	90.126142
608.000000	90.100394
607.000000	90.085628
606.000000	90.059460
605.000000	90.046438
604.000000	90.024025
603.000000	89.990049
602.000000	89.974122
601.000000	89.936881
600.000000	89.924552
599.000000	89.873913
598.000000	89.862689
597.000000	89.813289
596.000000	89.805610
595.000000	89.761591
594.000000	89.728488
593.000000	89.711191
592.000000	89.666840
591.000000	89.644804
590.000000	89.601050
589.000000	89.563782
588.000000	89.552667
587.000000	89.495686
586.000000	89.471602
585.000000	89.444291
584.000000	89.412488
583.000000	89.385589
582.000000	89.361536
581.000000	89.296490
580.000000	89.295362
579.000000	89.252067
578.000000	89.201742
577.000000	89.177599
576.000000	89.157607
575.000000	89.121777
574.000000	89.076821
573.000000	89.041921
572.000000	89.023351
571.000000	88.975670
570.000000	88.930167
569.000000	88.891397
568.000000	88.862397
567.000000	88.820046
566.000000	88.795586
565.000000	88.766742
564.000000	88.741281
563.000000	88.679495
562.000000	88.650658
561.000000	88.611665
560.000000	88.573837
559.000000	88.527169
558.000000	88.501264
557.000000	88.475195
556.000000	88.413835
555.000000	88.373147
554.000000	88.337955
553.000000	88.299175
552.000000	88.261226
551.000000	88.208081
550.000000	88.168374
549.000000	88.154501
548.000000	88.127267
547.000000	88.078265
546.000000	88.043392
545.000000	88.018353
544.000000	87.949624
543.000000	87.906011
542.000000	87.875154
541.000000	87.841389
540.000000	87.795163
539.000000	87.748614
538.000000	87.719535
537.000000	87.685947
536.000000	87.659421
535.000000	87.640186
534.000000	87.584713
533.000000	87.526499
532.000000	87.513458
531.000000	87.496219
530.000000	87.465579
529.000000	87.437134
528.000000	87.404401
527.000000	87.376430
526.000000	87.356283
525.000000	87.320430
524.000000	87.279009
523.000000	87.256437
522.000000	87.230456
521.000000	87.202274
520.000000	87.186527
519.000000	87.147250
518.000000	87.114220
517.000000	87.086804
516.000000	87.069789
515.000000	87.028341
514.000000	87.010237
513.000000	87.001234
512.000000	86.995918
511.000000	86.964029
510.000000	86.946545
509.000000	86.912253
508.000000	86.890193
507.000000	86.874846
506.000000	86.880736
505.000000	86.841114
504.000000	86.847648
503.000000	86.821993
502.000000	86.789125
501.000000	86.784293
500.000000	86.766290
499.000000	86.761704
498.000000	86.750576
497.000000	86.735957
496.000000	86.728195
495.000000	86.700966
494.000000	86.703355
493.000000	86.700399
492.000000	86.676153
491.000000	86.663471
490.000000	86.669170
489.000000	86.680792
488.000000	86.662027
487.000000	86.649590
486.000000	86.664429
485.000000	86.667870
484.000000	86.667291
483.000000	86.659720
482.000000	86.678368
481.000000	86.673965
480.000000	86.681591
479.000000	86.670257
478.000000	86.692519
477.000000	86.720397
476.000000	86.724801
475.000000	86.740519
474.000000	86.769111
473.000000	86.783990
472.000000	86.807443
471.000000	86.806626
470.000000	86.837583
469.000000	86.875895
468.000000	86.900873
467.000000	86.901449
466.000000	86.909933
465.000000	86.959559
464.000000	86.994046
463.000000	87.024344
462.000000	87.060304
461.000000	87.076728
460.000000	87.129859
459.000000	87.143976
458.000000	87.161624
457.000000	87.237883
456.000000	87.245701
455.000000	87.279819
454.000000	87.331521
453.000000	87.316409
452.000000	87.361468
451.000000	87.354809
450.000000	87.449611
449.000000	87.513782
448.000000	87.532245
447.000000	87.533349
446.000000	87.603473
445.000000	87.615542
444.000000	87.693112
443.000000	87.658578
442.000000	87.668489
441.000000	87.665616
440.000000	87.709760
439.000000	87.716051
438.000000	87.746098
437.000000	87.802478
436.000000	87.819697
435.000000	87.824364
434.000000	87.838093
433.000000	87.882267
432.000000	87.881074
431.000000	87.884662
430.000000	87.910668
429.000000	87.927309
428.000000	87.868459
427.000000	87.810230
426.000000	87.811591
425.000000	87.781310
424.000000	87.671376
423.000000	87.702507
422.000000	87.616916
421.000000	87.561450
420.000000	87.484831
419.000000	87.427669
418.000000	87.337649
417.000000	87.242142
416.000000	87.105235
415.000000	87.008557
414.000000	86.870435
413.000000	86.724238
412.000000	86.575137
411.000000	86.425267
410.000000	86.237617
409.000000	85.998016
408.000000	85.823460
407.000000	85.573019
406.000000	85.362023
405.000000	85.058209
404.000000	84.797943
403.000000	84.540786
402.000000	84.177720
401.000000	83.884117
400.000000	83.536979
399.000000	83.126155
398.000000	82.686240
397.000000	82.356448
396.000000	81.935666
395.000000	81.497091
394.000000	81.018243
393.000000	80.530193
392.000000	80.019622
391.000000	79.466166
390.000000	78.898976
389.000000	78.258059
388.000000	77.676816
387.000000	77.050113
386.000000	76.393915
385.000000	75.714126
384.000000	75.020118
383.000000	74.337249
382.000000	73.552718
381.000000	72.841229
380.000000	71.997957
379.000000	71.203364
378.000000	70.322209
377.000000	69.539404
376.000000	68.706810
375.000000	67.891490
374.000000	67.005530
373.000000	66.174717
372.000000	65.177617
371.000000	64.222327
370.000000	63.257579
369.000000	62.380392
368.000000	61.424740
367.000000	60.368687
366.000000	59.430527
365.000000	58.370333
364.000000	57.298291
363.000000	56.303260
362.000000	55.228225
361.000000	54.227324
360.000000	53.093626
359.000000	51.879399
358.000000	50.807562
357.000000	49.708709
356.000000	48.675675
355.000000	47.544937
354.000000	46.413731
353.000000	45.306316
352.000000	44.145300
351.000000	42.988735
350.000000	41.825129
349.000000	40.627046
348.000000	39.447752
347.000000	38.320668
346.000000	37.179856
345.000000	35.983891
344.000000	34.824402
343.000000	33.674539
342.000000	32.541135
341.000000	31.317655
340.000000	30.127276
339.000000	28.953557
338.000000	27.706632
337.000000	26.505750
336.000000	25.323906
335.000000	24.160175
334.000000	22.995980
333.000000	21.840528
332.000000	20.688592
331.000000	19.503675
330.000000	18.324851
329.000000	17.227735
328.000000	16.083957
327.000000	15.034081
326.000000	13.999210
325.000000	12.992439
324.000000	12.028757
323.000000	11.082743
322.000000	10.180399
321.000000	9.298945
320.000000	8.481598
319.000000	7.725620
318.000000	7.010361
317.000000	6.402758
316.000000	5.800688
315.000000	5.237117
314.000000	4.733692
313.000000	4.263892
312.000000	3.837189
311.000000	3.452492
310.000000	3.097590
309.000000	2.776159
308.000000	2.502243
307.000000	2.253502
306.000000	2.028907
305.000000	1.832338
304.000000	1.646824
303.000000	1.479729
302.000000	1.329659
301.000000	1.200635
300.000000	1.075680
299.000000	0.961043
298.000000	0.863976
297.000000	0.774620
296.000000	0.694042
295.000000	0.615405
294.000000	0.544782
293.000000	0.488586
292.000000	0.438892
291.000000	0.383204
290.000000	0.336552
289.000000	0.292793
288.000000	0.254238
287.000000	0.224262
286.000000	0.193038
285.000000	0.168900
284.000000	0.148263
283.000000	0.127154
282.000000	0.105023
281.000000	0.089895
280.000000	0.077347
279.000000	0.064809
278.000000	0.053504
277.000000	0.040962
276.000000	0.035383
275.000000	0.029714
274.000000	0.022096
273.000000	0.015336
272.000000	0.011414
271.000000	0.011870
270.000000	0.009736
269.000000	0.006254
268.000000	0.005005
267.000000	0.000000
266.000000	-0.002147
265.000000	-0.001968
264.000000	-0.003043
263.000000	0.001701
262.000000	0.003759
261.000000	0.002329
260.000000	-0.000179
259.000000	-0.001255
258.000000	0.000179
257.000000	0.002331
256.000000	0.002332
255.000000	-0.002962
254.000000	-0.002603
253.000000	0.001705
252.000000	-0.001257
251.000000	-0.001438
250.000000	-0.000629
