PE UV       SUBTECH     SPECTRUM    ASCII       PEDS        4.00        
   -1
Sample882.Sample.asc
12/04/24
10:58:29.00
12/04/24
10:58:29.00
Analyst
ITO4_1_A
250.000000
1
Lambda 950
950N6032301
PerkinElmer UV WinLab 5.1.5.0637 / 1.61.00 Lambda 900

0
0
3350/servo 860.8/2
0
0
UV/VIS
1
1
1
RBeamAtt,SBeamAtt,150mm sphere / downward view
0
0
0
0
Program
Program
3350/servo 860.8/2
3350/1 860.8/1
3350/1 860.8/1
0
1
 
 
 
0
 
860.8
319.2
860.8
Front
100
 
S:100 R:100
 
0
0
0
 
0
 
 
 
0
 
 
0
0
0
0
0
 
 
 
 
0
0
#HDR
-1
-1
#GR
nm
%T
1.0
0.0
2500.000000
-1.000000
2251
8
12.839801
2.369383
#DATA
2500.000000	5.026538
2499.000000	4.827540
2498.000000	4.045728
2497.000000	3.803118
2496.000000	4.732796
2495.000000	4.561566
2494.000000	4.523561
2493.000000	4.141889
2492.000000	3.432015
2491.000000	5.150401
2490.000000	4.314711
2489.000000	3.361147
2488.000000	4.311837
2487.000000	5.069319
2486.000000	3.562379
2485.000000	5.075669
2484.000000	4.306886
2483.000000	3.627951
2482.000000	2.812370
2481.000000	3.861361
2480.000000	3.779903
2479.000000	4.200602
2478.000000	4.250568
2477.000000	4.861484
2476.000000	3.991816
2475.000000	4.833262
2474.000000	3.053769
2473.000000	4.028305
2472.000000	4.376662
2471.000000	4.037335
2470.000000	4.075003
2469.000000	3.707653
2468.000000	3.693452
2467.000000	3.838134
2466.000000	5.157346
2465.000000	3.740976
2464.000000	3.963674
2463.000000	3.980802
2462.000000	2.857480
2461.000000	3.834337
2460.000000	4.252651
2459.000000	4.092537
2458.000000	3.717148
2457.000000	4.362465
2456.000000	3.403423
2455.000000	4.422958
2454.000000	4.053817
2453.000000	2.369383
2452.000000	4.177411
2451.000000	4.242234
2450.000000	4.311742
2449.000000	3.695067
2448.000000	3.029718
2447.000000	4.092103
2446.000000	5.000749
2445.000000	4.592128
2444.000000	3.685602
2443.000000	4.969364
2442.000000	3.982063
2441.000000	2.992363
2440.000000	4.243421
2439.000000	3.807205
2438.000000	4.075846
2437.000000	3.411068
2436.000000	3.999307
2435.000000	3.841384
2434.000000	3.723880
2433.000000	4.044144
2432.000000	4.464898
2431.000000	4.858257
2430.000000	4.850084
2429.000000	3.721992
2428.000000	3.673005
2427.000000	4.387102
2426.000000	3.587993
2425.000000	3.378069
2424.000000	3.476811
2423.000000	4.159024
2422.000000	4.406280
2421.000000	4.264818
2420.000000	4.507930
2419.000000	4.261792
2418.000000	4.317329
2417.000000	4.414807
2416.000000	3.962677
2415.000000	4.065259
2414.000000	3.744014
2413.000000	3.435756
2412.000000	4.474262
2411.000000	4.710046
2410.000000	3.584670
2409.000000	3.596558
2408.000000	3.880587
2407.000000	3.648478
2406.000000	3.714466
2405.000000	4.532673
2404.000000	4.018115
2403.000000	4.497254
2402.000000	4.648773
2401.000000	4.812423
2400.000000	4.564034
2399.000000	4.052387
2398.000000	4.018419
2397.000000	4.076032
2396.000000	3.606828
2395.000000	3.700242
2394.000000	4.206821
2393.000000	3.832114
2392.000000	4.031777
2391.000000	3.899207
2390.000000	3.686639
2389.000000	4.020009
2388.000000	4.549150
2387.000000	4.286233
2386.000000	4.090339
2385.000000	4.002010
2384.000000	4.143950
2383.000000	3.950812
2382.000000	4.000516
2381.000000	4.172101
2380.000000	4.360381
2379.000000	4.662498
2378.000000	4.436382
2377.000000	4.246507
2376.000000	4.513565
2375.000000	4.212544
2374.000000	4.189043
2373.000000	4.357621
2372.000000	3.691490
2371.000000	4.032214
2370.000000	4.480034
2369.000000	4.298022
2368.000000	4.084915
2367.000000	3.686828
2366.000000	4.217420
2365.000000	4.284360
2364.000000	4.090529
2363.000000	4.101353
2362.000000	4.257173
2361.000000	4.383232
2360.000000	4.073163
2359.000000	3.837339
2358.000000	3.278521
2357.000000	3.733747
2356.000000	4.642634
2355.000000	4.307116
2354.000000	4.056381
2353.000000	4.313280
2352.000000	4.447225
2351.000000	4.317880
2350.000000	4.233533
2349.000000	4.177613
2348.000000	3.557509
2347.000000	3.692437
2346.000000	3.614336
2345.000000	3.899140
2344.000000	4.046491
2343.000000	3.851696
2342.000000	3.936387
2341.000000	3.986067
2340.000000	4.017072
2339.000000	4.107826
2338.000000	3.817341
2337.000000	3.836962
2336.000000	4.228408
2335.000000	4.538874
2334.000000	4.433982
2333.000000	4.093508
2332.000000	4.359979
2331.000000	4.358633
2330.000000	4.141558
2329.000000	3.892978
2328.000000	3.776214
2327.000000	4.223385
2326.000000	3.858328
2325.000000	4.021552
2324.000000	4.060597
2323.000000	3.812214
2322.000000	3.837757
2321.000000	3.951096
2320.000000	4.072906
2319.000000	3.539571
2318.000000	3.894389
2317.000000	4.252692
2316.000000	4.300395
2315.000000	4.023849
2314.000000	4.414972
2313.000000	4.249643
2312.000000	4.270733
2311.000000	3.807352
2310.000000	4.082434
2309.000000	3.696661
2308.000000	3.694203
2307.000000	3.801057
2306.000000	4.202771
2305.000000	4.180080
2304.000000	4.287527
2303.000000	4.138427
2302.000000	4.203916
2301.000000	4.441839
2300.000000	4.486271
2299.000000	4.108210
2298.000000	4.313989
2297.000000	4.352008
2296.000000	3.884127
2295.000000	3.966909
2294.000000	4.208259
2293.000000	4.062203
2292.000000	4.069434
2291.000000	4.002031
2290.000000	4.099476
2289.000000	4.032243
2288.000000	4.284905
2287.000000	4.429573
2286.000000	3.915633
2285.000000	4.044862
2284.000000	3.890785
2283.000000	3.934747
2282.000000	3.932169
2281.000000	4.225486
2280.000000	4.428073
2279.000000	3.906829
2278.000000	4.254506
2277.000000	4.576817
2276.000000	4.132691
2275.000000	4.492946
2274.000000	3.971358
2273.000000	4.430124
2272.000000	4.178617
2271.000000	4.271926
2270.000000	4.122988
2269.000000	4.070587
2268.000000	4.551411
2267.000000	4.267256
2266.000000	4.141750
2265.000000	4.571016
2264.000000	4.125995
2263.000000	4.252909
2262.000000	4.391602
2261.000000	4.015196
2260.000000	4.414760
2259.000000	4.224122
2258.000000	4.147040
2257.000000	4.025580
2256.000000	3.839974
2255.000000	4.026143
2254.000000	4.804048
2253.000000	4.096761
2252.000000	4.317810
2251.000000	4.366469
2250.000000	4.173778
2249.000000	4.123234
2248.000000	4.501345
2247.000000	3.738155
2246.000000	4.525819
2245.000000	4.190692
2244.000000	4.189997
2243.000000	4.395937
2242.000000	4.389151
2241.000000	4.035898
2240.000000	4.039701
2239.000000	4.190800
2238.000000	4.161643
2237.000000	3.834810
2236.000000	4.210726
2235.000000	4.057559
2234.000000	4.495586
2233.000000	3.925650
2232.000000	4.239439
2231.000000	4.055080
2230.000000	4.490161
2229.000000	4.069975
2228.000000	4.301223
2227.000000	3.889700
2226.000000	4.433884
2225.000000	4.257882
2224.000000	4.162466
2223.000000	4.353173
2222.000000	4.068471
2221.000000	4.092498
2220.000000	4.024170
2219.000000	4.263696
2218.000000	4.224199
2217.000000	4.203956
2216.000000	4.026970
2215.000000	4.192648
2214.000000	4.326315
2213.000000	4.465151
2212.000000	4.155825
2211.000000	4.275197
2210.000000	4.131933
2209.000000	4.003251
2208.000000	4.306737
2207.000000	4.145413
2206.000000	4.084609
2205.000000	4.201942
2204.000000	4.349919
2203.000000	4.235829
2202.000000	4.142896
2201.000000	4.029542
2200.000000	4.171858
2199.000000	4.119032
2198.000000	4.276528
2197.000000	4.474290
2196.000000	4.243315
2195.000000	4.288374
2194.000000	4.352883
2193.000000	4.040071
2192.000000	4.440145
2191.000000	4.433641
2190.000000	4.007421
2189.000000	3.683883
2188.000000	4.194923
2187.000000	4.228339
2186.000000	4.291738
2185.000000	4.370252
2184.000000	4.240940
2183.000000	4.335426
2182.000000	4.447961
2181.000000	4.276621
2180.000000	4.149259
2179.000000	4.433790
2178.000000	4.251153
2177.000000	4.082025
2176.000000	4.125045
2175.000000	4.282149
2174.000000	4.166958
2173.000000	4.118550
2172.000000	4.315532
2171.000000	4.347095
2170.000000	4.255222
2169.000000	4.249068
2168.000000	4.174302
2167.000000	4.153412
2166.000000	4.274546
2165.000000	4.312474
2164.000000	4.154446
2163.000000	4.179223
2162.000000	4.053372
2161.000000	4.339304
2160.000000	4.585986
2159.000000	4.588042
2158.000000	4.464565
2157.000000	4.311583
2156.000000	4.182609
2155.000000	4.394749
2154.000000	4.520916
2153.000000	4.263179
2152.000000	4.054733
2151.000000	4.272409
2150.000000	4.500343
2149.000000	4.411510
2148.000000	4.311414
2147.000000	4.393302
2146.000000	4.191489
2145.000000	4.009308
2144.000000	4.255189
2143.000000	4.390283
2142.000000	4.286764
2141.000000	4.501254
2140.000000	4.541858
2139.000000	4.435153
2138.000000	4.476903
2137.000000	4.416541
2136.000000	4.504633
2135.000000	4.264999
2134.000000	4.215236
2133.000000	4.096784
2132.000000	4.189207
2131.000000	4.289485
2130.000000	4.318520
2129.000000	4.582478
2128.000000	4.430270
2127.000000	4.396943
2126.000000	4.384768
2125.000000	4.294103
2124.000000	4.296365
2123.000000	4.207941
2122.000000	4.325053
2121.000000	4.341169
2120.000000	4.414053
2119.000000	4.448452
2118.000000	4.429130
2117.000000	4.391766
2116.000000	4.386716
2115.000000	4.378422
2114.000000	4.229745
2113.000000	4.316066
2112.000000	4.362157
2111.000000	4.223899
2110.000000	4.249794
2109.000000	4.478890
2108.000000	4.428383
2107.000000	4.308041
2106.000000	4.281849
2105.000000	4.443935
2104.000000	4.468928
2103.000000	4.363980
2102.000000	4.351578
2101.000000	4.302117
2100.000000	4.317553
2099.000000	4.443246
2098.000000	4.388495
2097.000000	4.152476
2096.000000	4.436590
2095.000000	4.638384
2094.000000	4.397005
2093.000000	4.247556
2092.000000	4.272212
2091.000000	4.534845
2090.000000	4.553172
2089.000000	4.505573
2088.000000	4.564573
2087.000000	4.573063
2086.000000	4.539189
2085.000000	4.354197
2084.000000	4.278667
2083.000000	4.361028
2082.000000	4.382171
2081.000000	4.499565
2080.000000	4.390321
2079.000000	4.278131
2078.000000	4.486642
2077.000000	4.434607
2076.000000	4.336026
2075.000000	4.596355
2074.000000	4.691309
2073.000000	4.443356
2072.000000	4.401719
2071.000000	4.558869
2070.000000	4.563068
2069.000000	4.336873
2068.000000	4.346513
2067.000000	4.465734
2066.000000	4.353358
2065.000000	4.537319
2064.000000	4.489673
2063.000000	4.449085
2062.000000	4.517900
2061.000000	4.552932
2060.000000	4.415086
2059.000000	4.379008
2058.000000	4.530123
2057.000000	4.542667
2056.000000	4.694000
2055.000000	4.609441
2054.000000	4.522252
2053.000000	4.560445
2052.000000	4.513467
2051.000000	4.431909
2050.000000	4.344905
2049.000000	4.497362
2048.000000	4.507878
2047.000000	4.581339
2046.000000	4.360949
2045.000000	4.461492
2044.000000	4.504449
2043.000000	4.545422
2042.000000	4.541703
2041.000000	4.558214
2040.000000	4.409545
2039.000000	4.413289
2038.000000	4.500479
2037.000000	4.511670
2036.000000	4.460002
2035.000000	4.410359
2034.000000	4.571769
2033.000000	4.596632
2032.000000	4.467539
2031.000000	4.537606
2030.000000	4.507678
2029.000000	4.521859
2028.000000	4.516982
2027.000000	4.622635
2026.000000	4.531872
2025.000000	4.547255
2024.000000	4.670113
2023.000000	4.515105
2022.000000	4.652863
2021.000000	4.465655
2020.000000	4.544615
2019.000000	4.480445
2018.000000	4.447765
2017.000000	4.474383
2016.000000	4.448312
2015.000000	4.616962
2014.000000	4.562388
2013.000000	4.692678
2012.000000	4.587563
2011.000000	4.549369
2010.000000	4.455877
2009.000000	4.526581
2008.000000	4.558829
2007.000000	4.522246
2006.000000	4.483575
2005.000000	4.554167
2004.000000	4.547411
2003.000000	4.609924
2002.000000	4.542592
2001.000000	4.687117
2000.000000	4.580783
1999.000000	4.555318
1998.000000	4.688093
1997.000000	4.604137
1996.000000	4.554146
1995.000000	4.507067
1994.000000	4.639197
1993.000000	4.612905
1992.000000	4.484265
1991.000000	4.645698
1990.000000	4.556087
1989.000000	4.525565
1988.000000	4.508427
1987.000000	4.665777
1986.000000	4.582001
1985.000000	4.691807
1984.000000	4.594285
1983.000000	4.540270
1982.000000	4.569073
1981.000000	4.528371
1980.000000	4.581167
1979.000000	4.593165
1978.000000	4.609131
1977.000000	4.600196
1976.000000	4.733416
1975.000000	4.700382
1974.000000	4.671378
1973.000000	4.684440
1972.000000	4.747035
1971.000000	4.604272
1970.000000	4.556072
1969.000000	4.688188
1968.000000	4.647823
1967.000000	4.689380
1966.000000	4.675961
1965.000000	4.760925
1964.000000	4.753791
1963.000000	4.729834
1962.000000	4.765783
1961.000000	4.623032
1960.000000	4.600190
1959.000000	4.762476
1958.000000	4.729047
1957.000000	4.716934
1956.000000	4.710797
1955.000000	4.681947
1954.000000	4.754293
1953.000000	4.695810
1952.000000	4.720089
1951.000000	4.776949
1950.000000	4.724625
1949.000000	4.689370
1948.000000	4.713427
1947.000000	4.662182
1946.000000	4.816717
1945.000000	4.725433
1944.000000	4.690260
1943.000000	4.749660
1942.000000	4.664096
1941.000000	4.775655
1940.000000	4.851146
1939.000000	4.726968
1938.000000	4.749169
1937.000000	4.861954
1936.000000	4.826359
1935.000000	4.781953
1934.000000	4.693550
1933.000000	4.732009
1932.000000	4.798128
1931.000000	4.769561
1930.000000	4.812314
1929.000000	4.837567
1928.000000	4.919960
1927.000000	4.766921
1926.000000	4.721007
1925.000000	4.743355
1924.000000	4.796621
1923.000000	4.857061
1922.000000	4.823425
1921.000000	4.745733
1920.000000	4.769526
1919.000000	4.829304
1918.000000	4.861976
1917.000000	4.949527
1916.000000	4.972716
1915.000000	4.763826
1914.000000	4.884813
1913.000000	4.864583
1912.000000	4.879260
1911.000000	4.886211
1910.000000	4.767065
1909.000000	4.872738
1908.000000	4.837807
1907.000000	4.759863
1906.000000	4.924113
1905.000000	4.893571
1904.000000	4.911800
1903.000000	4.966757
1902.000000	4.871913
1901.000000	4.889968
1900.000000	4.898494
1899.000000	4.888488
1898.000000	4.845032
1897.000000	4.954174
1896.000000	4.909188
1895.000000	4.847407
1894.000000	4.869846
1893.000000	4.905834
1892.000000	4.934130
1891.000000	4.877454
1890.000000	4.837833
1889.000000	4.945657
1888.000000	4.833310
1887.000000	4.916595
1886.000000	4.922055
1885.000000	4.908704
1884.000000	4.960645
1883.000000	4.984315
1882.000000	4.976436
1881.000000	4.925219
1880.000000	4.876155
1879.000000	4.928136
1878.000000	4.925424
1877.000000	4.919857
1876.000000	5.002834
1875.000000	4.937262
1874.000000	4.979877
1873.000000	4.975607
1872.000000	5.013536
1871.000000	4.967548
1870.000000	4.902495
1869.000000	4.988998
1868.000000	4.980730
1867.000000	4.990085
1866.000000	5.028906
1865.000000	5.016758
1864.000000	4.990893
1863.000000	4.988834
1862.000000	5.014410
1861.000000	5.066303
1860.000000	5.009689
1859.000000	4.972729
1858.000000	5.021764
1857.000000	5.045291
1856.000000	5.024161
1855.000000	5.039526
1854.000000	5.074593
1853.000000	5.115002
1852.000000	5.083765
1851.000000	5.081058
1850.000000	5.045700
1849.000000	5.017235
1848.000000	5.063901
1847.000000	5.082261
1846.000000	5.101869
1845.000000	5.084031
1844.000000	5.045847
1843.000000	5.086159
1842.000000	5.120656
1841.000000	5.133119
1840.000000	5.097544
1839.000000	5.115737
1838.000000	5.141035
1837.000000	5.100737
1836.000000	5.113803
1835.000000	5.129364
1834.000000	5.137354
1833.000000	5.129824
1832.000000	5.125312
1831.000000	5.095471
1830.000000	5.108147
1829.000000	5.164239
1828.000000	5.122683
1827.000000	5.083295
1826.000000	5.086956
1825.000000	5.088801
1824.000000	5.117914
1823.000000	5.148887
1822.000000	5.187147
1821.000000	5.125826
1820.000000	5.148130
1819.000000	5.189075
1818.000000	5.181452
1817.000000	5.182777
1816.000000	5.154640
1815.000000	5.161726
1814.000000	5.177369
1813.000000	5.179922
1812.000000	5.171053
1811.000000	5.186408
1810.000000	5.235652
1809.000000	5.215063
1808.000000	5.211350
1807.000000	5.207716
1806.000000	5.188576
1805.000000	5.186825
1804.000000	5.205601
1803.000000	5.214038
1802.000000	5.202821
1801.000000	5.192503
1800.000000	5.193547
1799.000000	5.208532
1798.000000	5.216854
1797.000000	5.184131
1796.000000	5.221846
1795.000000	5.266497
1794.000000	5.300807
1793.000000	5.280249
1792.000000	5.256899
1791.000000	5.253157
1790.000000	5.274018
1789.000000	5.267253
1788.000000	5.299156
1787.000000	5.330983
1786.000000	5.281179
1785.000000	5.299795
1784.000000	5.320742
1783.000000	5.316461
1782.000000	5.315150
1781.000000	5.258939
1780.000000	5.306393
1779.000000	5.341497
1778.000000	5.311860
1777.000000	5.354568
1776.000000	5.394627
1775.000000	5.368584
1774.000000	5.316183
1773.000000	5.330260
1772.000000	5.392942
1771.000000	5.327175
1770.000000	5.381579
1769.000000	5.359159
1768.000000	5.339875
1767.000000	5.381626
1766.000000	5.398170
1765.000000	5.369825
1764.000000	5.403932
1763.000000	5.389054
1762.000000	5.404596
1761.000000	5.426717
1760.000000	5.419385
1759.000000	5.430916
1758.000000	5.407465
1757.000000	5.408852
1756.000000	5.382232
1755.000000	5.422815
1754.000000	5.416018
1753.000000	5.389612
1752.000000	5.451386
1751.000000	5.460629
1750.000000	5.466667
1749.000000	5.447957
1748.000000	5.495676
1747.000000	5.498926
1746.000000	5.512258
1745.000000	5.435606
1744.000000	5.432264
1743.000000	5.453970
1742.000000	5.474591
1741.000000	5.530539
1740.000000	5.541131
1739.000000	5.514782
1738.000000	5.490703
1737.000000	5.497833
1736.000000	5.507935
1735.000000	5.545099
1734.000000	5.522008
1733.000000	5.549335
1732.000000	5.526364
1731.000000	5.567201
1730.000000	5.527337
1729.000000	5.606130
1728.000000	5.526170
1727.000000	5.563490
1726.000000	5.567205
1725.000000	5.573704
1724.000000	5.544641
1723.000000	5.603799
1722.000000	5.584074
1721.000000	5.581107
1720.000000	5.574030
1719.000000	5.570048
1718.000000	5.569846
1717.000000	5.640344
1716.000000	5.571797
1715.000000	5.613141
1714.000000	5.633734
1713.000000	5.662630
1712.000000	5.537617
1711.000000	5.616599
1710.000000	5.633320
1709.000000	5.659547
1708.000000	5.638119
1707.000000	5.695412
1706.000000	5.628226
1705.000000	5.630301
1704.000000	5.640684
1703.000000	5.624336
1702.000000	5.714217
1701.000000	5.734976
1700.000000	5.674837
1699.000000	5.690089
1698.000000	5.658214
1697.000000	5.660866
1696.000000	5.722235
1695.000000	5.713872
1694.000000	5.726173
1693.000000	5.750000
1692.000000	5.736423
1691.000000	5.728149
1690.000000	5.737225
1689.000000	5.764103
1688.000000	5.736948
1687.000000	5.745326
1686.000000	5.788897
1685.000000	5.772298
1684.000000	5.752184
1683.000000	5.774686
1682.000000	5.770488
1681.000000	5.737217
1680.000000	5.796718
1679.000000	5.822775
1678.000000	5.827062
1677.000000	5.848530
1676.000000	5.847929
1675.000000	5.852294
1674.000000	5.882482
1673.000000	5.839815
1672.000000	5.813909
1671.000000	5.828363
1670.000000	5.861000
1669.000000	5.836924
1668.000000	5.835864
1667.000000	5.814137
1666.000000	5.888939
1665.000000	5.886386
1664.000000	5.854004
1663.000000	5.854672
1662.000000	5.916236
1661.000000	5.899355
1660.000000	5.903849
1659.000000	5.925924
1658.000000	5.911429
1657.000000	5.871950
1656.000000	5.939132
1655.000000	5.946788
1654.000000	5.928540
1653.000000	5.924807
1652.000000	5.942906
1651.000000	5.962053
1650.000000	5.964926
1649.000000	5.964042
1648.000000	5.964940
1647.000000	5.956117
1646.000000	5.929148
1645.000000	5.952904
1644.000000	5.998750
1643.000000	5.984462
1642.000000	5.995506
1641.000000	5.981698
1640.000000	5.991794
1639.000000	6.012566
1638.000000	6.011393
1637.000000	6.014856
1636.000000	6.048018
1635.000000	6.023943
1634.000000	6.064234
1633.000000	6.040085
1632.000000	6.035830
1631.000000	6.089524
1630.000000	6.071943
1629.000000	6.069261
1628.000000	6.079448
1627.000000	6.094479
1626.000000	6.088503
1625.000000	6.086134
1624.000000	6.086812
1623.000000	6.088327
1622.000000	6.110263
1621.000000	6.120288
1620.000000	6.136826
1619.000000	6.138798
1618.000000	6.140482
1617.000000	6.146159
1616.000000	6.130592
1615.000000	6.132249
1614.000000	6.134465
1613.000000	6.161028
1612.000000	6.160450
1611.000000	6.157747
1610.000000	6.156018
1609.000000	6.174753
1608.000000	6.185782
1607.000000	6.210791
1606.000000	6.184110
1605.000000	6.195447
1604.000000	6.233041
1603.000000	6.227828
1602.000000	6.212557
1601.000000	6.234995
1600.000000	6.231513
1599.000000	6.226454
1598.000000	6.248449
1597.000000	6.241686
1596.000000	6.246897
1595.000000	6.265939
1594.000000	6.279129
1593.000000	6.297956
1592.000000	6.302548
1591.000000	6.291791
1590.000000	6.281127
1589.000000	6.290406
1588.000000	6.307185
1587.000000	6.306727
1586.000000	6.324674
1585.000000	6.334392
1584.000000	6.329266
1583.000000	6.330917
1582.000000	6.329570
1581.000000	6.326907
1580.000000	6.340104
1579.000000	6.357794
1578.000000	6.350071
1577.000000	6.362936
1576.000000	6.365481
1575.000000	6.372395
1574.000000	6.391903
1573.000000	6.402254
1572.000000	6.402851
1571.000000	6.403717
1570.000000	6.414294
1569.000000	6.415715
1568.000000	6.424550
1567.000000	6.430317
1566.000000	6.424362
1565.000000	6.429279
1564.000000	6.456487
1563.000000	6.480628
1562.000000	6.466419
1561.000000	6.462169
1560.000000	6.471998
1559.000000	6.507582
1558.000000	6.521164
1557.000000	6.515347
1556.000000	6.495224
1555.000000	6.478643
1554.000000	6.494941
1553.000000	6.515368
1552.000000	6.538857
1551.000000	6.547192
1550.000000	6.537188
1549.000000	6.542841
1548.000000	6.541230
1547.000000	6.543409
1546.000000	6.563337
1545.000000	6.554565
1544.000000	6.552059
1543.000000	6.611198
1542.000000	6.583147
1541.000000	6.565069
1540.000000	6.570472
1539.000000	6.588134
1538.000000	6.619591
1537.000000	6.618259
1536.000000	6.623820
1535.000000	6.628973
1534.000000	6.621069
1533.000000	6.649377
1532.000000	6.663707
1531.000000	6.667355
1530.000000	6.637791
1529.000000	6.643406
1528.000000	6.656930
1527.000000	6.643649
1526.000000	6.679910
1525.000000	6.691339
1524.000000	6.716961
1523.000000	6.726684
1522.000000	6.700974
1521.000000	6.711260
1520.000000	6.758660
1519.000000	6.743934
1518.000000	6.716878
1517.000000	6.719393
1516.000000	6.728348
1515.000000	6.728870
1514.000000	6.745080
1513.000000	6.788869
1512.000000	6.806612
1511.000000	6.781128
1510.000000	6.788402
1509.000000	6.818079
1508.000000	6.805151
1507.000000	6.809488
1506.000000	6.815786
1505.000000	6.800717
1504.000000	6.807047
1503.000000	6.836950
1502.000000	6.841425
1501.000000	6.874246
1500.000000	6.856004
1499.000000	6.869701
1498.000000	6.858756
1497.000000	6.893774
1496.000000	6.880292
1495.000000	6.886817
1494.000000	6.876078
1493.000000	6.888428
1492.000000	6.893058
1491.000000	6.925884
1490.000000	6.919842
1489.000000	6.936928
1488.000000	6.965965
1487.000000	6.934389
1486.000000	6.989667
1485.000000	6.987112
1484.000000	6.985720
1483.000000	6.985817
1482.000000	6.979586
1481.000000	6.987440
1480.000000	6.996157
1479.000000	7.000187
1478.000000	7.010196
1477.000000	7.012858
1476.000000	7.018602
1475.000000	7.058406
1474.000000	7.034592
1473.000000	7.036670
1472.000000	7.058370
1471.000000	7.067784
1470.000000	7.071058
1469.000000	7.061874
1468.000000	7.068153
1467.000000	7.090376
1466.000000	7.108998
1465.000000	7.097731
1464.000000	7.118627
1463.000000	7.103045
1462.000000	7.099440
1461.000000	7.155623
1460.000000	7.146937
1459.000000	7.142843
1458.000000	7.130509
1457.000000	7.141682
1456.000000	7.182665
1455.000000	7.161124
1454.000000	7.143853
1453.000000	7.173724
1452.000000	7.150737
1451.000000	7.198829
1450.000000	7.175845
1449.000000	7.189274
1448.000000	7.208453
1447.000000	7.203676
1446.000000	7.238750
1445.000000	7.228109
1444.000000	7.245782
1443.000000	7.253538
1442.000000	7.253308
1441.000000	7.279061
1440.000000	7.251488
1439.000000	7.277073
1438.000000	7.295623
1437.000000	7.277300
1436.000000	7.286298
1435.000000	7.293615
1434.000000	7.309710
1433.000000	7.329835
1432.000000	7.327032
1431.000000	7.363436
1430.000000	7.339760
1429.000000	7.353102
1428.000000	7.367178
1427.000000	7.352076
1426.000000	7.380202
1425.000000	7.370783
1424.000000	7.395804
1423.000000	7.386206
1422.000000	7.389383
1421.000000	7.423774
1420.000000	7.433424
1419.000000	7.427236
1418.000000	7.467755
1417.000000	7.457468
1416.000000	7.446662
1415.000000	7.463269
1414.000000	7.458440
1413.000000	7.473987
1412.000000	7.485275
1411.000000	7.492782
1410.000000	7.480963
1409.000000	7.490181
1408.000000	7.518301
1407.000000	7.521897
1406.000000	7.536551
1405.000000	7.563586
1404.000000	7.549172
1403.000000	7.543454
1402.000000	7.557505
1401.000000	7.580399
1400.000000	7.612926
1399.000000	7.577422
1398.000000	7.595604
1397.000000	7.586950
1396.000000	7.602410
1395.000000	7.651750
1394.000000	7.629652
1393.000000	7.656680
1392.000000	7.652830
1391.000000	7.647381
1390.000000	7.660299
1389.000000	7.673009
1388.000000	7.655910
1387.000000	7.684367
1386.000000	7.720799
1385.000000	7.694901
1384.000000	7.699871
1383.000000	7.730384
1382.000000	7.702428
1381.000000	7.710683
1380.000000	7.736827
1379.000000	7.760378
1378.000000	7.773471
1377.000000	7.763524
1376.000000	7.772185
1375.000000	7.792288
1374.000000	7.779326
1373.000000	7.792902
1372.000000	7.810443
1371.000000	7.809326
1370.000000	7.839101
1369.000000	7.836172
1368.000000	7.843329
1367.000000	7.855260
1366.000000	7.844286
1365.000000	7.839150
1364.000000	7.864501
1363.000000	7.878109
1362.000000	7.883652
1361.000000	7.869559
1360.000000	7.890233
1359.000000	7.904404
1358.000000	7.892220
1357.000000	7.910946
1356.000000	7.926756
1355.000000	7.919864
1354.000000	7.928668
1353.000000	7.926055
1352.000000	7.939084
1351.000000	7.960625
1350.000000	7.967948
1349.000000	7.979648
1348.000000	7.993953
1347.000000	8.001738
1346.000000	8.007537
1345.000000	8.011536
1344.000000	8.025834
1343.000000	8.021327
1342.000000	8.028860
1341.000000	8.036415
1340.000000	8.046100
1339.000000	8.078627
1338.000000	8.100396
1337.000000	8.094711
1336.000000	8.101671
1335.000000	8.087212
1334.000000	8.097089
1333.000000	8.097704
1332.000000	8.112188
1331.000000	8.145409
1330.000000	8.147057
1329.000000	8.151035
1328.000000	8.158958
1327.000000	8.158437
1326.000000	8.162215
1325.000000	8.169562
1324.000000	8.186418
1323.000000	8.196744
1322.000000	8.203654
1321.000000	8.219574
1320.000000	8.234794
1319.000000	8.235977
1318.000000	8.239381
1317.000000	8.252814
1316.000000	8.269315
1315.000000	8.277656
1314.000000	8.281058
1313.000000	8.280980
1312.000000	8.283719
1311.000000	8.296288
1310.000000	8.297951
1309.000000	8.307482
1308.000000	8.322549
1307.000000	8.332592
1306.000000	8.348530
1305.000000	8.349709
1304.000000	8.345442
1303.000000	8.357401
1302.000000	8.363561
1301.000000	8.378392
1300.000000	8.381708
1299.000000	8.386214
1298.000000	8.411101
1297.000000	8.429963
1296.000000	8.424234
1295.000000	8.430738
1294.000000	8.439142
1293.000000	8.437005
1292.000000	8.453977
1291.000000	8.475142
1290.000000	8.472790
1289.000000	8.488358
1288.000000	8.508220
1287.000000	8.509595
1286.000000	8.513955
1285.000000	8.521570
1284.000000	8.538385
1283.000000	8.549328
1282.000000	8.548892
1281.000000	8.553950
1280.000000	8.570382
1279.000000	8.572114
1278.000000	8.578638
1277.000000	8.590665
1276.000000	8.605703
1275.000000	8.613550
1274.000000	8.602612
1273.000000	8.616905
1272.000000	8.641189
1271.000000	8.654873
1270.000000	8.651806
1269.000000	8.651744
1268.000000	8.675420
1267.000000	8.685118
1266.000000	8.688564
1265.000000	8.693495
1264.000000	8.698171
1263.000000	8.710583
1262.000000	8.736315
1261.000000	8.742673
1260.000000	8.755638
1259.000000	8.737073
1258.000000	8.771132
1257.000000	8.757946
1256.000000	8.759523
1255.000000	8.784966
1254.000000	8.789677
1253.000000	8.793702
1252.000000	8.808016
1251.000000	8.814345
1250.000000	8.826376
1249.000000	8.840081
1248.000000	8.846495
1247.000000	8.848101
1246.000000	8.869069
1245.000000	8.878796
1244.000000	8.855469
1243.000000	8.890007
1242.000000	8.926853
1241.000000	8.918639
1240.000000	8.921310
1239.000000	8.916637
1238.000000	8.935847
1237.000000	8.935724
1236.000000	8.954735
1235.000000	8.955036
1234.000000	8.965802
1233.000000	8.980621
1232.000000	8.992150
1231.000000	8.981620
1230.000000	8.998430
1229.000000	9.016841
1228.000000	9.026403
1227.000000	9.035722
1226.000000	9.038065
1225.000000	9.049995
1224.000000	9.042226
1223.000000	9.056634
1222.000000	9.073872
1221.000000	9.074985
1220.000000	9.105060
1219.000000	9.106568
1218.000000	9.099892
1217.000000	9.129131
1216.000000	9.140484
1215.000000	9.130310
1214.000000	9.144430
1213.000000	9.141507
1212.000000	9.165332
1211.000000	9.185374
1210.000000	9.179390
1209.000000	9.194614
1208.000000	9.199854
1207.000000	9.207733
1206.000000	9.211437
1205.000000	9.227061
1204.000000	9.216117
1203.000000	9.244902
1202.000000	9.238229
1201.000000	9.257161
1200.000000	9.276410
1199.000000	9.294577
1198.000000	9.282065
1197.000000	9.284433
1196.000000	9.315290
1195.000000	9.295641
1194.000000	9.324204
1193.000000	9.327320
1192.000000	9.346812
1191.000000	9.358557
1190.000000	9.346394
1189.000000	9.373092
1188.000000	9.379465
1187.000000	9.382668
1186.000000	9.392058
1185.000000	9.411910
1184.000000	9.401303
1183.000000	9.436538
1182.000000	9.419407
1181.000000	9.452525
1180.000000	9.458942
1179.000000	9.452405
1178.000000	9.464048
1177.000000	9.492606
1176.000000	9.473052
1175.000000	9.515698
1174.000000	9.511571
1173.000000	9.498494
1172.000000	9.532425
1171.000000	9.529536
1170.000000	9.532771
1169.000000	9.542296
1168.000000	9.553693
1167.000000	9.567066
1166.000000	9.564574
1165.000000	9.584131
1164.000000	9.587812
1163.000000	9.596461
1162.000000	9.605687
1161.000000	9.619558
1160.000000	9.639325
1159.000000	9.612085
1158.000000	9.638610
1157.000000	9.644197
1156.000000	9.671378
1155.000000	9.663848
1154.000000	9.680916
1153.000000	9.696256
1152.000000	9.716069
1151.000000	9.703380
1150.000000	9.719527
1149.000000	9.706697
1148.000000	9.745193
1147.000000	9.749576
1146.000000	9.766637
1145.000000	9.758282
1144.000000	9.758305
1143.000000	9.780445
1142.000000	9.796598
1141.000000	9.788935
1140.000000	9.807622
1139.000000	9.806614
1138.000000	9.813298
1137.000000	9.818450
1136.000000	9.832746
1135.000000	9.854034
1134.000000	9.847844
1133.000000	9.842744
1132.000000	9.869866
1131.000000	9.860602
1130.000000	9.883997
1129.000000	9.912292
1128.000000	9.878215
1127.000000	9.907561
1126.000000	9.909962
1125.000000	9.911426
1124.000000	9.942135
1123.000000	9.951585
1122.000000	9.943071
1121.000000	9.954034
1120.000000	9.967490
1119.000000	9.978646
1118.000000	9.990149
1117.000000	10.016305
1116.000000	9.997337
1115.000000	10.002161
1114.000000	10.023113
1113.000000	10.024227
1112.000000	10.039396
1111.000000	10.046456
1110.000000	10.063224
1109.000000	10.083865
1108.000000	10.096043
1107.000000	10.092548
1106.000000	10.087980
1105.000000	10.098072
1104.000000	10.104419
1103.000000	10.117481
1102.000000	10.140618
1101.000000	10.147260
1100.000000	10.162925
1099.000000	10.142547
1098.000000	10.173228
1097.000000	10.176970
1096.000000	10.174814
1095.000000	10.187045
1094.000000	10.209645
1093.000000	10.246602
1092.000000	10.246129
1091.000000	10.231279
1090.000000	10.235695
1089.000000	10.247020
1088.000000	10.237371
1087.000000	10.254915
1086.000000	10.277748
1085.000000	10.278146
1084.000000	10.290662
1083.000000	10.304388
1082.000000	10.316877
1081.000000	10.319565
1080.000000	10.316782
1079.000000	10.325600
1078.000000	10.323578
1077.000000	10.324823
1076.000000	10.362803
1075.000000	10.387767
1074.000000	10.380874
1073.000000	10.387970
1072.000000	10.388324
1071.000000	10.390364
1070.000000	10.398693
1069.000000	10.420170
1068.000000	10.428586
1067.000000	10.429993
1066.000000	10.425224
1065.000000	10.451599
1064.000000	10.446642
1063.000000	10.444901
1062.000000	10.477857
1061.000000	10.475651
1060.000000	10.470294
1059.000000	10.498347
1058.000000	10.509025
1057.000000	10.511270
1056.000000	10.525910
1055.000000	10.532496
1054.000000	10.540780
1053.000000	10.549916
1052.000000	10.554187
1051.000000	10.557475
1050.000000	10.560582
1049.000000	10.581274
1048.000000	10.607217
1047.000000	10.615534
1046.000000	10.614154
1045.000000	10.619597
1044.000000	10.635666
1043.000000	10.645808
1042.000000	10.650125
1041.000000	10.685780
1040.000000	10.679410
1039.000000	10.661254
1038.000000	10.691264
1037.000000	10.722650
1036.000000	10.724438
1035.000000	10.714396
1034.000000	10.710996
1033.000000	10.718341
1032.000000	10.751008
1031.000000	10.770930
1030.000000	10.758848
1029.000000	10.773669
1028.000000	10.796546
1027.000000	10.786251
1026.000000	10.788648
1025.000000	10.796949
1024.000000	10.801761
1023.000000	10.816628
1022.000000	10.817660
1021.000000	10.829756
1020.000000	10.850980
1019.000000	10.875444
1018.000000	10.876391
1017.000000	10.888080
1016.000000	10.894923
1015.000000	10.891491
1014.000000	10.903860
1013.000000	10.917967
1012.000000	10.916161
1011.000000	10.941137
1010.000000	10.926438
1009.000000	10.959537
1008.000000	10.956917
1007.000000	10.959854
1006.000000	10.975864
1005.000000	10.979174
1004.000000	10.995792
1003.000000	11.005802
1002.000000	11.012278
1001.000000	11.006768
1000.000000	11.040338
999.000000	11.056873
998.000000	11.066773
997.000000	11.091465
996.000000	11.087329
995.000000	11.091257
994.000000	11.130345
993.000000	11.088594
992.000000	11.098799
991.000000	11.151751
990.000000	11.143708
989.000000	11.175764
988.000000	11.200327
987.000000	11.160547
986.000000	11.199355
985.000000	11.199463
984.000000	11.199478
983.000000	11.226156
982.000000	11.186072
981.000000	11.237271
980.000000	11.230981
979.000000	11.250538
978.000000	11.235266
977.000000	11.220930
976.000000	11.239622
975.000000	11.265825
974.000000	11.238505
973.000000	11.233143
972.000000	11.245255
971.000000	11.310422
970.000000	11.327971
969.000000	11.353719
968.000000	11.380265
967.000000	11.358841
966.000000	11.343018
965.000000	11.327911
964.000000	11.383344
963.000000	11.411427
962.000000	11.434192
961.000000	11.390867
960.000000	11.428634
959.000000	11.440089
958.000000	11.392874
957.000000	11.449647
956.000000	11.546709
955.000000	11.498277
954.000000	11.488371
953.000000	11.502195
952.000000	11.551167
951.000000	11.544359
950.000000	11.543075
949.000000	11.530548
948.000000	11.574559
947.000000	11.591357
946.000000	11.592442
945.000000	11.590106
944.000000	11.621993
943.000000	11.598826
942.000000	11.622689
941.000000	11.669662
940.000000	11.674867
939.000000	11.662869
938.000000	11.736017
937.000000	11.697550
936.000000	11.708644
935.000000	11.811379
934.000000	11.785748
933.000000	11.712778
932.000000	11.745248
931.000000	11.834006
930.000000	11.754382
929.000000	11.811966
928.000000	11.763818
927.000000	11.782185
926.000000	11.825101
925.000000	11.827940
924.000000	11.836237
923.000000	11.863080
922.000000	11.774768
921.000000	11.790022
920.000000	11.927617
919.000000	11.908726
918.000000	11.807697
917.000000	11.915308
916.000000	11.992082
915.000000	11.832591
914.000000	11.877892
913.000000	11.939680
912.000000	12.012599
911.000000	12.078468
910.000000	12.015462
909.000000	12.079472
908.000000	11.938186
907.000000	12.018068
906.000000	12.070402
905.000000	12.053865
904.000000	12.116551
903.000000	11.996016
902.000000	12.051656
901.000000	12.228540
900.000000	12.161634
899.000000	12.198133
898.000000	12.058761
897.000000	12.113113
896.000000	12.305084
895.000000	12.107831
894.000000	12.218918
893.000000	12.184761
892.000000	12.271784
891.000000	12.372204
890.000000	12.374424
889.000000	12.337490
888.000000	12.233865
887.000000	12.354420
886.000000	12.273977
885.000000	12.432525
884.000000	12.611623
883.000000	12.373804
882.000000	12.459224
881.000000	12.270809
880.000000	12.255652
879.000000	12.657051
878.000000	12.381426
877.000000	12.661012
876.000000	12.470296
875.000000	12.195908
874.000000	12.345682
873.000000	12.514624
872.000000	12.466974
871.000000	12.657227
870.000000	12.334370
869.000000	12.436292
868.000000	12.737069
867.000000	12.500964
866.000000	12.281778
865.000000	12.839801
864.000000	12.594651
863.000000	12.451343
862.000000	12.351161
861.000000	12.638678
860.000000	12.506920
859.000000	12.217917
858.000000	12.147779
857.000000	12.143895
856.000000	12.159418
855.000000	12.198099
854.000000	12.249052
853.000000	12.203264
852.000000	12.202808
851.000000	12.183624
850.000000	12.194326
849.000000	12.211318
848.000000	12.206563
847.000000	12.262296
846.000000	12.297933
845.000000	12.183817
844.000000	12.159334
843.000000	12.207047
842.000000	12.230531
841.000000	12.215522
840.000000	12.228280
839.000000	12.202390
838.000000	12.177596
837.000000	12.205675
836.000000	12.219350
835.000000	12.231667
834.000000	12.174273
833.000000	12.187828
832.000000	12.216129
831.000000	12.193439
830.000000	12.168860
829.000000	12.149823
828.000000	12.152146
827.000000	12.142937
826.000000	12.140264
825.000000	12.125437
824.000000	12.113021
823.000000	12.096937
822.000000	12.074525
821.000000	12.067111
820.000000	12.061199
819.000000	12.052703
818.000000	12.039220
817.000000	12.040167
816.000000	12.038509
815.000000	12.006728
814.000000	12.002259
813.000000	11.993349
812.000000	11.964998
811.000000	11.948613
810.000000	11.923163
809.000000	11.911290
808.000000	11.903370
807.000000	11.890769
806.000000	11.881342
805.000000	11.861653
804.000000	11.850280
803.000000	11.837953
802.000000	11.808987
801.000000	11.789953
800.000000	11.784811
799.000000	11.765425
798.000000	11.750868
797.000000	11.746938
796.000000	11.711590
795.000000	11.685465
794.000000	11.677219
793.000000	11.652205
792.000000	11.640032
791.000000	11.635344
790.000000	11.604880
789.000000	11.591367
788.000000	11.579681
787.000000	11.550662
786.000000	11.523585
785.000000	11.519859
784.000000	11.501687
783.000000	11.476916
782.000000	11.469429
781.000000	11.453066
780.000000	11.430799
779.000000	11.405080
778.000000	11.391421
777.000000	11.377363
776.000000	11.351763
775.000000	11.337874
774.000000	11.325204
773.000000	11.305169
772.000000	11.287296
771.000000	11.268062
770.000000	11.253333
769.000000	11.251935
768.000000	11.230067
767.000000	11.199509
766.000000	11.184582
765.000000	11.176673
764.000000	11.171408
763.000000	11.145373
762.000000	11.120706
761.000000	11.117432
760.000000	11.110045
759.000000	11.082749
758.000000	11.062260
757.000000	11.042710
756.000000	11.024108
755.000000	11.013551
754.000000	11.001633
753.000000	10.988948
752.000000	10.966235
751.000000	10.952116
750.000000	10.937826
749.000000	10.924535
748.000000	10.910299
747.000000	10.891448
746.000000	10.888681
745.000000	10.866086
744.000000	10.865238
743.000000	10.852560
742.000000	10.836183
741.000000	10.826721
740.000000	10.807724
739.000000	10.798955
738.000000	10.791499
737.000000	10.769952
736.000000	10.752941
735.000000	10.745024
734.000000	10.737967
733.000000	10.730368
732.000000	10.714943
731.000000	10.703543
730.000000	10.694526
729.000000	10.679636
728.000000	10.675975
727.000000	10.662345
726.000000	10.648718
725.000000	10.645277
724.000000	10.631083
723.000000	10.620011
722.000000	10.608751
721.000000	10.598310
720.000000	10.591533
719.000000	10.583006
718.000000	10.578568
717.000000	10.573228
716.000000	10.558407
715.000000	10.555342
714.000000	10.547636
713.000000	10.535805
712.000000	10.524909
711.000000	10.513003
710.000000	10.508709
709.000000	10.505380
708.000000	10.489663
707.000000	10.488174
706.000000	10.483636
705.000000	10.479414
704.000000	10.466885
703.000000	10.473258
702.000000	10.465641
701.000000	10.461439
700.000000	10.450461
699.000000	10.444207
698.000000	10.444459
697.000000	10.441053
696.000000	10.424355
695.000000	10.427156
694.000000	10.425737
693.000000	10.420340
692.000000	10.423645
691.000000	10.416186
690.000000	10.404301
689.000000	10.397096
688.000000	10.389802
687.000000	10.394049
686.000000	10.394591
685.000000	10.390828
684.000000	10.384596
683.000000	10.391511
682.000000	10.386135
681.000000	10.386184
680.000000	10.385044
679.000000	10.387925
678.000000	10.387985
677.000000	10.381033
676.000000	10.379895
675.000000	10.390150
674.000000	10.383317
673.000000	10.378883
672.000000	10.386443
671.000000	10.382400
670.000000	10.386422
669.000000	10.384798
668.000000	10.382930
667.000000	10.397607
666.000000	10.388964
665.000000	10.385698
664.000000	10.394209
663.000000	10.399205
662.000000	10.398464
661.000000	10.402227
660.000000	10.390689
659.000000	10.407866
658.000000	10.415306
657.000000	10.414267
656.000000	10.426789
655.000000	10.422660
654.000000	10.422238
653.000000	10.428341
652.000000	10.430087
651.000000	10.442677
650.000000	10.443843
649.000000	10.444304
648.000000	10.453444
647.000000	10.454672
646.000000	10.462051
645.000000	10.464032
644.000000	10.475827
643.000000	10.487529
642.000000	10.492501
641.000000	10.505155
640.000000	10.506125
639.000000	10.513375
638.000000	10.526500
637.000000	10.529842
636.000000	10.540963
635.000000	10.542789
634.000000	10.554792
633.000000	10.558909
632.000000	10.569271
631.000000	10.573017
630.000000	10.591413
629.000000	10.594885
628.000000	10.607339
627.000000	10.618526
626.000000	10.620501
625.000000	10.633843
624.000000	10.644949
623.000000	10.657129
622.000000	10.661982
621.000000	10.670971
620.000000	10.684301
619.000000	10.693578
618.000000	10.706163
617.000000	10.718659
616.000000	10.731127
615.000000	10.738871
614.000000	10.753295
613.000000	10.763495
612.000000	10.777053
611.000000	10.784239
610.000000	10.806605
609.000000	10.813358
608.000000	10.824306
607.000000	10.835412
606.000000	10.852766
605.000000	10.867679
604.000000	10.877135
603.000000	10.889417
602.000000	10.901139
601.000000	10.917076
600.000000	10.931973
599.000000	10.944879
598.000000	10.956046
597.000000	10.970633
596.000000	10.985426
595.000000	11.000181
594.000000	11.014579
593.000000	11.024127
592.000000	11.044108
591.000000	11.056530
590.000000	11.071066
589.000000	11.083573
588.000000	11.099666
587.000000	11.112320
586.000000	11.130733
585.000000	11.140547
584.000000	11.159172
583.000000	11.172533
582.000000	11.187100
581.000000	11.201559
580.000000	11.213663
579.000000	11.230379
578.000000	11.246146
577.000000	11.259866
576.000000	11.274248
575.000000	11.290952
574.000000	11.309955
573.000000	11.318907
572.000000	11.336733
571.000000	11.346075
570.000000	11.358426
569.000000	11.372695
568.000000	11.384767
567.000000	11.402407
566.000000	11.419736
565.000000	11.429166
564.000000	11.441889
563.000000	11.457481
562.000000	11.470969
561.000000	11.481109
560.000000	11.494199
559.000000	11.507595
558.000000	11.520304
557.000000	11.534144
556.000000	11.544186
555.000000	11.559251
554.000000	11.569688
553.000000	11.578997
552.000000	11.590117
551.000000	11.603393
550.000000	11.615898
549.000000	11.628314
548.000000	11.642414
547.000000	11.651694
546.000000	11.662667
545.000000	11.673953
544.000000	11.682237
543.000000	11.694891
542.000000	11.705820
541.000000	11.710901
540.000000	11.721281
539.000000	11.734765
538.000000	11.745090
537.000000	11.753840
536.000000	11.761234
535.000000	11.763484
534.000000	11.769506
533.000000	11.781417
532.000000	11.792439
531.000000	11.797953
530.000000	11.800303
529.000000	11.803921
528.000000	11.809401
527.000000	11.815264
526.000000	11.820369
525.000000	11.821614
524.000000	11.823074
523.000000	11.828607
522.000000	11.831683
521.000000	11.833740
520.000000	11.834072
519.000000	11.837558
518.000000	11.842613
517.000000	11.840592
516.000000	11.840966
515.000000	11.847499
514.000000	11.847221
513.000000	11.840749
512.000000	11.839925
511.000000	11.839870
510.000000	11.840616
509.000000	11.833809
508.000000	11.831150
507.000000	11.828516
506.000000	11.820605
505.000000	11.811919
504.000000	11.812048
503.000000	11.805131
502.000000	11.796332
501.000000	11.788794
500.000000	11.773725
499.000000	11.763777
498.000000	11.759233
497.000000	11.747112
496.000000	11.737565
495.000000	11.719710
494.000000	11.706342
493.000000	11.691644
492.000000	11.678389
491.000000	11.659828
490.000000	11.638260
489.000000	11.625474
488.000000	11.608910
487.000000	11.591341
486.000000	11.573845
485.000000	11.553205
484.000000	11.536736
483.000000	11.518291
482.000000	11.496277
481.000000	11.476709
480.000000	11.456355
479.000000	11.433806
478.000000	11.417028
477.000000	11.389453
476.000000	11.365506
475.000000	11.340836
474.000000	11.315588
473.000000	11.291449
472.000000	11.267268
471.000000	11.236045
470.000000	11.209558
469.000000	11.181222
468.000000	11.156943
467.000000	11.125917
466.000000	11.096978
465.000000	11.066545
464.000000	11.040946
463.000000	11.003234
462.000000	10.969524
461.000000	10.943955
460.000000	10.907205
459.000000	10.861508
458.000000	10.846820
457.000000	10.805639
456.000000	10.764644
455.000000	10.737210
454.000000	10.692335
453.000000	10.655720
452.000000	10.621433
451.000000	10.575426
450.000000	10.539026
449.000000	10.506158
448.000000	10.463889
447.000000	10.420857
446.000000	10.383032
445.000000	10.333953
444.000000	10.293180
443.000000	10.258503
442.000000	10.219138
441.000000	10.172888
440.000000	10.128316
439.000000	10.083432
438.000000	10.048952
437.000000	10.008912
436.000000	9.974226
435.000000	9.926695
434.000000	9.887753
433.000000	9.856460
432.000000	9.817075
431.000000	9.783789
430.000000	9.743315
429.000000	9.714084
428.000000	9.668883
427.000000	9.624145
426.000000	9.598004
425.000000	9.565504
424.000000	9.523272
423.000000	9.485221
422.000000	9.447622
421.000000	9.420872
420.000000	9.386812
419.000000	9.348271
418.000000	9.320490
417.000000	9.295455
416.000000	9.277455
415.000000	9.242059
414.000000	9.218503
413.000000	9.194965
412.000000	9.172861
411.000000	9.150293
410.000000	9.147698
409.000000	9.123660
408.000000	9.111042
407.000000	9.087331
406.000000	9.089045
405.000000	9.073747
404.000000	9.072356
403.000000	9.075508
402.000000	9.065340
401.000000	9.063442
400.000000	9.071814
399.000000	9.075526
398.000000	9.078489
397.000000	9.098951
396.000000	9.114286
395.000000	9.133215
394.000000	9.151380
393.000000	9.170301
392.000000	9.197475
391.000000	9.227513
390.000000	9.256064
389.000000	9.285760
388.000000	9.316985
387.000000	9.356255
386.000000	9.393320
385.000000	9.442795
384.000000	9.492826
383.000000	9.545972
382.000000	9.594063
381.000000	9.649508
380.000000	9.701675
379.000000	9.765674
378.000000	9.844633
377.000000	9.936911
376.000000	10.000430
375.000000	10.059375
374.000000	10.140805
373.000000	10.222650
372.000000	10.275521
371.000000	10.347463
370.000000	10.414436
369.000000	10.476943
368.000000	10.572381
367.000000	10.639836
366.000000	10.698411
365.000000	10.790007
364.000000	10.858056
363.000000	10.939391
362.000000	10.991259
361.000000	11.072456
360.000000	11.141952
359.000000	11.190881
358.000000	11.245091
357.000000	11.301642
356.000000	11.361203
355.000000	11.388516
354.000000	11.411467
353.000000	11.462459
352.000000	11.479678
351.000000	11.513557
350.000000	11.539994
349.000000	11.537871
348.000000	11.516294
347.000000	11.514526
346.000000	11.496755
345.000000	11.480209
344.000000	11.436231
343.000000	11.376705
342.000000	11.318690
341.000000	11.257886
340.000000	11.175891
339.000000	11.046542
338.000000	10.969379
337.000000	10.879091
336.000000	10.771293
335.000000	10.634924
334.000000	10.555701
333.000000	10.424442
332.000000	10.283625
331.000000	10.150560
330.000000	10.005644
329.000000	9.875203
328.000000	9.732800
327.000000	9.608711
326.000000	9.482645
325.000000	9.334875
324.000000	9.192783
323.000000	9.112296
322.000000	8.997100
321.000000	8.898202
320.000000	8.781770
319.000000	8.690619
318.000000	8.544206
317.000000	8.387746
316.000000	8.322132
315.000000	8.265499
314.000000	8.227733
313.000000	8.189543
312.000000	8.151277
311.000000	8.108742
310.000000	8.084947
309.000000	8.075138
308.000000	8.070426
307.000000	8.051004
306.000000	8.054488
305.000000	8.040776
304.000000	8.033272
303.000000	8.013684
302.000000	7.980149
301.000000	7.983424
300.000000	7.978618
299.000000	7.962108
298.000000	7.941715
297.000000	7.937351
296.000000	7.952119
295.000000	7.947010
294.000000	7.931567
293.000000	7.927334
292.000000	7.933367
291.000000	7.936667
290.000000	7.931426
289.000000	7.918089
288.000000	7.932493
287.000000	7.936665
286.000000	7.935041
285.000000	7.944106
284.000000	7.956254
283.000000	7.968386
282.000000	7.975741
281.000000	7.981700
280.000000	7.994332
279.000000	8.024204
278.000000	8.038573
277.000000	8.046019
276.000000	8.081175
275.000000	8.106564
274.000000	8.127883
273.000000	8.150992
272.000000	8.180079
271.000000	8.204127
270.000000	8.233591
269.000000	8.268809
268.000000	8.297612
267.000000	8.324344
266.000000	8.350061
265.000000	8.387185
264.000000	8.421370
263.000000	8.455108
262.000000	8.503534
261.000000	8.535853
260.000000	8.573222
259.000000	8.614780
258.000000	8.661537
257.000000	8.710917
256.000000	8.741907
255.000000	8.798438
254.000000	8.849501
253.000000	8.879842
252.000000	8.929902
251.000000	8.984288
250.000000	9.042098
