PE UV       SUBTECH     SPECTRUM    ASCII       PEDS        4.00        
   -1
Sample432.Sample.asc
10/02/23
13:44:50.00
10/02/23
13:44:50.00
Analyst
vetro indesit nudo
300.000000
1
Lambda 950
950N6032301
PerkinElmer UV WinLab 5.1.5.0637 / 1.61.00 Lambda 900

0
0
3350/servo 860.8/2
0
0
UV/VIS
1
1
1
RBeamAtt,SBeamAtt,150mm sphere / downward view
0
0
0
0
Program
Program
3350/servo 860.8/2
3350/1 860.8/1
3350/1 860.8/1
0
1
 
 
 
0
 
860.8
319.2
860.8
Front
100
 
S:100 R:100
 
0
0
0
 
0
 
 
 
0
 
 
0
0
0
0
0
 
 
 
 
0
0
#HDR
-1
-1
#GR
nm
%T
1.0
0.0
2500.000000
-1.000000
2201
8
9.827548
5.446681
#DATA
2500.000000	7.152560
2499.000000	7.408029
2498.000000	7.708099
2497.000000	6.526061
2496.000000	8.376548
2495.000000	6.922494
2494.000000	7.943591
2493.000000	6.822549
2492.000000	7.714649
2491.000000	7.014503
2490.000000	7.905625
2489.000000	6.812706
2488.000000	7.795368
2487.000000	6.911240
2486.000000	7.177133
2485.000000	7.236697
2484.000000	7.024810
2483.000000	7.385353
2482.000000	7.609867
2481.000000	6.626949
2480.000000	7.404579
2479.000000	7.129823
2478.000000	7.652025
2477.000000	7.259169
2476.000000	7.392310
2475.000000	7.235059
2474.000000	7.758815
2473.000000	7.103702
2472.000000	7.432535
2471.000000	7.398747
2470.000000	7.987535
2469.000000	7.114628
2468.000000	7.424259
2467.000000	7.045497
2466.000000	7.436573
2465.000000	7.464407
2464.000000	7.727907
2463.000000	6.972908
2462.000000	7.444000
2461.000000	6.979319
2460.000000	8.080564
2459.000000	7.075704
2458.000000	7.328585
2457.000000	7.432190
2456.000000	7.812577
2455.000000	6.929670
2454.000000	7.602810
2453.000000	7.287672
2452.000000	7.466249
2451.000000	7.119849
2450.000000	7.864814
2449.000000	7.695754
2448.000000	7.020551
2447.000000	7.061621
2446.000000	7.167058
2445.000000	7.070148
2444.000000	7.325500
2443.000000	7.359907
2442.000000	7.432664
2441.000000	7.537471
2440.000000	7.831787
2439.000000	7.262911
2438.000000	7.551966
2437.000000	7.338733
2436.000000	7.176303
2435.000000	7.050493
2434.000000	7.309794
2433.000000	7.121488
2432.000000	7.595672
2431.000000	7.342427
2430.000000	7.284719
2429.000000	7.343761
2428.000000	7.737898
2427.000000	7.138992
2426.000000	7.339109
2425.000000	7.200375
2424.000000	7.574391
2423.000000	7.557231
2422.000000	7.266224
2421.000000	7.408311
2420.000000	7.271289
2419.000000	7.103080
2418.000000	7.393767
2417.000000	7.471437
2416.000000	7.712650
2415.000000	7.097174
2414.000000	7.131538
2413.000000	7.460918
2412.000000	7.538197
2411.000000	7.377282
2410.000000	7.385776
2409.000000	7.148548
2408.000000	7.296304
2407.000000	7.554518
2406.000000	7.350741
2405.000000	7.016818
2404.000000	7.304213
2403.000000	7.418711
2402.000000	7.270643
2401.000000	7.237297
2400.000000	7.510729
2399.000000	7.439644
2398.000000	7.182221
2397.000000	7.109455
2396.000000	7.378791
2395.000000	7.347971
2394.000000	7.426278
2393.000000	7.419909
2392.000000	7.386886
2391.000000	7.467047
2390.000000	7.480037
2389.000000	7.415679
2388.000000	7.261274
2387.000000	7.317385
2386.000000	7.404318
2385.000000	7.316779
2384.000000	7.616014
2383.000000	7.492851
2382.000000	7.336063
2381.000000	7.396400
2380.000000	7.716431
2379.000000	7.772997
2378.000000	7.561757
2377.000000	7.553362
2376.000000	7.473585
2375.000000	7.500677
2374.000000	7.410090
2373.000000	7.323370
2372.000000	7.367220
2371.000000	7.466757
2370.000000	7.490305
2369.000000	7.539111
2368.000000	7.556741
2367.000000	7.431814
2366.000000	7.202922
2365.000000	7.340124
2364.000000	7.190316
2363.000000	7.223351
2362.000000	7.253411
2361.000000	7.356927
2360.000000	7.467859
2359.000000	7.444412
2358.000000	7.425457
2357.000000	7.524079
2356.000000	7.348371
2355.000000	7.367608
2354.000000	7.395512
2353.000000	7.469373
2352.000000	7.345813
2351.000000	7.262202
2350.000000	7.381206
2349.000000	7.591095
2348.000000	7.574845
2347.000000	7.330563
2346.000000	7.158049
2345.000000	7.521118
2344.000000	7.319739
2343.000000	7.458887
2342.000000	7.246849
2341.000000	7.423527
2340.000000	7.232111
2339.000000	7.635606
2338.000000	7.575208
2337.000000	7.535378
2336.000000	7.409387
2335.000000	7.471603
2334.000000	7.331003
2333.000000	7.440895
2332.000000	7.547561
2331.000000	7.328343
2330.000000	7.285673
2329.000000	7.461533
2328.000000	7.464322
2327.000000	7.546750
2326.000000	7.331671
2325.000000	7.572833
2324.000000	7.422212
2323.000000	7.215854
2322.000000	7.290987
2321.000000	7.668488
2320.000000	7.389133
2319.000000	7.586519
2318.000000	7.508389
2317.000000	7.363448
2316.000000	7.227069
2315.000000	7.575783
2314.000000	7.177126
2313.000000	7.360095
2312.000000	7.449628
2311.000000	7.613294
2310.000000	7.143513
2309.000000	7.339366
2308.000000	7.284866
2307.000000	7.411351
2306.000000	7.427304
2305.000000	7.602468
2304.000000	7.299319
2303.000000	7.590862
2302.000000	7.256866
2301.000000	7.339829
2300.000000	7.328964
2299.000000	7.445820
2298.000000	7.199307
2297.000000	7.633409
2296.000000	7.376197
2295.000000	7.409961
2294.000000	7.198019
2293.000000	7.486982
2292.000000	7.122718
2291.000000	7.452890
2290.000000	7.538171
2289.000000	7.511805
2288.000000	7.167281
2287.000000	7.433436
2286.000000	7.368373
2285.000000	7.458827
2284.000000	7.190119
2283.000000	7.284664
2282.000000	7.326015
2281.000000	7.573713
2280.000000	7.311443
2279.000000	7.413404
2278.000000	7.395191
2277.000000	7.596389
2276.000000	7.246170
2275.000000	7.465301
2274.000000	7.369079
2273.000000	7.383545
2272.000000	7.284544
2271.000000	7.579326
2270.000000	7.228277
2269.000000	7.346396
2268.000000	7.324676
2267.000000	7.317903
2266.000000	7.409933
2265.000000	7.431617
2264.000000	7.357208
2263.000000	7.410795
2262.000000	7.125751
2261.000000	7.390891
2260.000000	7.287132
2259.000000	7.363405
2258.000000	7.138810
2257.000000	7.434355
2256.000000	7.297954
2255.000000	7.443085
2254.000000	7.175347
2253.000000	7.429543
2252.000000	7.353482
2251.000000	7.569072
2250.000000	7.310045
2249.000000	7.447232
2248.000000	7.245004
2247.000000	7.437565
2246.000000	7.262208
2245.000000	7.470881
2244.000000	7.179820
2243.000000	7.437904
2242.000000	7.297099
2241.000000	7.533980
2240.000000	7.445202
2239.000000	7.464204
2238.000000	7.094986
2237.000000	7.358162
2236.000000	7.400781
2235.000000	7.431654
2234.000000	7.206924
2233.000000	7.454715
2232.000000	7.244081
2231.000000	7.475742
2230.000000	7.308583
2229.000000	7.427934
2228.000000	7.395254
2227.000000	7.417830
2226.000000	7.306341
2225.000000	7.405475
2224.000000	7.326594
2223.000000	7.473843
2222.000000	7.331033
2221.000000	7.459972
2220.000000	7.196367
2219.000000	7.399034
2218.000000	7.364687
2217.000000	7.445001
2216.000000	7.365271
2215.000000	7.521738
2214.000000	7.291906
2213.000000	7.415638
2212.000000	7.274677
2211.000000	7.363707
2210.000000	7.206766
2209.000000	7.467667
2208.000000	7.313097
2207.000000	7.354175
2206.000000	7.403299
2205.000000	7.366933
2204.000000	7.324382
2203.000000	7.455410
2202.000000	7.328129
2201.000000	7.433344
2200.000000	7.340168
2199.000000	7.442083
2198.000000	7.329302
2197.000000	7.410909
2196.000000	7.362706
2195.000000	7.414504
2194.000000	7.462778
2193.000000	7.455810
2192.000000	7.422918
2191.000000	7.344139
2190.000000	7.406602
2189.000000	7.559272
2188.000000	7.485672
2187.000000	7.538111
2186.000000	7.458236
2185.000000	7.515945
2184.000000	7.422020
2183.000000	7.522966
2182.000000	7.506739
2181.000000	7.577628
2180.000000	7.717544
2179.000000	7.531427
2178.000000	7.452382
2177.000000	7.512764
2176.000000	7.515662
2175.000000	7.587071
2174.000000	7.571400
2173.000000	7.675551
2172.000000	7.510204
2171.000000	7.551578
2170.000000	7.509557
2169.000000	7.592773
2168.000000	7.445414
2167.000000	7.596125
2166.000000	7.601431
2165.000000	7.659625
2164.000000	7.544408
2163.000000	7.693371
2162.000000	7.620329
2161.000000	7.529900
2160.000000	7.628638
2159.000000	7.555734
2158.000000	7.404026
2157.000000	7.487465
2156.000000	7.603284
2155.000000	7.567085
2154.000000	7.478188
2153.000000	7.614443
2152.000000	7.507272
2151.000000	7.540158
2150.000000	7.480107
2149.000000	7.504165
2148.000000	7.569479
2147.000000	7.619908
2146.000000	7.623750
2145.000000	7.594178
2144.000000	7.583919
2143.000000	7.548027
2142.000000	7.587748
2141.000000	7.597654
2140.000000	7.562199
2139.000000	7.605927
2138.000000	7.547397
2137.000000	7.557466
2136.000000	7.619949
2135.000000	7.499023
2134.000000	7.475958
2133.000000	7.497349
2132.000000	7.470861
2131.000000	7.519000
2130.000000	7.571833
2129.000000	7.505639
2128.000000	7.546272
2127.000000	7.505962
2126.000000	7.527708
2125.000000	7.520253
2124.000000	7.471585
2123.000000	7.457803
2122.000000	7.519876
2121.000000	7.622456
2120.000000	7.580468
2119.000000	7.461340
2118.000000	7.607458
2117.000000	7.635417
2116.000000	7.535322
2115.000000	7.600613
2114.000000	7.587805
2113.000000	7.508772
2112.000000	7.631284
2111.000000	7.550747
2110.000000	7.535805
2109.000000	7.528652
2108.000000	7.636796
2107.000000	7.642639
2106.000000	7.515629
2105.000000	7.468970
2104.000000	7.566926
2103.000000	7.570646
2102.000000	7.529537
2101.000000	7.456477
2100.000000	7.590931
2099.000000	7.596947
2098.000000	7.634776
2097.000000	7.500759
2096.000000	7.547313
2095.000000	7.567050
2094.000000	7.598418
2093.000000	7.577019
2092.000000	7.622496
2091.000000	7.449754
2090.000000	7.514788
2089.000000	7.563273
2088.000000	7.528671
2087.000000	7.473706
2086.000000	7.650094
2085.000000	7.575064
2084.000000	7.592506
2083.000000	7.560556
2082.000000	7.606853
2081.000000	7.539798
2080.000000	7.579822
2079.000000	7.485752
2078.000000	7.623661
2077.000000	7.594266
2076.000000	7.664608
2075.000000	7.482850
2074.000000	7.508414
2073.000000	7.548701
2072.000000	7.515363
2071.000000	7.618555
2070.000000	7.602417
2069.000000	7.495607
2068.000000	7.535142
2067.000000	7.569923
2066.000000	7.531889
2065.000000	7.511037
2064.000000	7.589050
2063.000000	7.578980
2062.000000	7.541553
2061.000000	7.538335
2060.000000	7.592757
2059.000000	7.541773
2058.000000	7.585708
2057.000000	7.547093
2056.000000	7.561761
2055.000000	7.525163
2054.000000	7.624249
2053.000000	7.534293
2052.000000	7.578311
2051.000000	7.418808
2050.000000	7.577296
2049.000000	7.606132
2048.000000	7.544548
2047.000000	7.473637
2046.000000	7.574500
2045.000000	7.543742
2044.000000	7.556448
2043.000000	7.519848
2042.000000	7.605296
2041.000000	7.448389
2040.000000	7.564992
2039.000000	7.526730
2038.000000	7.518750
2037.000000	7.462937
2036.000000	7.610815
2035.000000	7.512608
2034.000000	7.596084
2033.000000	7.499911
2032.000000	7.566157
2031.000000	7.499790
2030.000000	7.600487
2029.000000	7.578203
2028.000000	7.578971
2027.000000	7.567910
2026.000000	7.536955
2025.000000	7.546612
2024.000000	7.627135
2023.000000	7.562922
2022.000000	7.474498
2021.000000	7.471157
2020.000000	7.531770
2019.000000	7.506003
2018.000000	7.586832
2017.000000	7.552969
2016.000000	7.603024
2015.000000	7.500321
2014.000000	7.553421
2013.000000	7.503962
2012.000000	7.581417
2011.000000	7.507666
2010.000000	7.616942
2009.000000	7.531184
2008.000000	7.549435
2007.000000	7.513681
2006.000000	7.602370
2005.000000	7.500587
2004.000000	7.523348
2003.000000	7.488127
2002.000000	7.604523
2001.000000	7.533434
2000.000000	7.583757
1999.000000	7.551428
1998.000000	7.525318
1997.000000	7.530721
1996.000000	7.542611
1995.000000	7.569381
1994.000000	7.540827
1993.000000	7.502929
1992.000000	7.594872
1991.000000	7.486296
1990.000000	7.554284
1989.000000	7.534549
1988.000000	7.571359
1987.000000	7.512489
1986.000000	7.593909
1985.000000	7.564630
1984.000000	7.574987
1983.000000	7.550953
1982.000000	7.574463
1981.000000	7.523779
1980.000000	7.550591
1979.000000	7.577387
1978.000000	7.566008
1977.000000	7.564096
1976.000000	7.550581
1975.000000	7.551687
1974.000000	7.568966
1973.000000	7.561112
1972.000000	7.616153
1971.000000	7.588892
1970.000000	7.576905
1969.000000	7.525621
1968.000000	7.597518
1967.000000	7.594789
1966.000000	7.643766
1965.000000	7.544442
1964.000000	7.555058
1963.000000	7.581989
1962.000000	7.614403
1961.000000	7.589765
1960.000000	7.606920
1959.000000	7.558701
1958.000000	7.595626
1957.000000	7.569654
1956.000000	7.599411
1955.000000	7.592517
1954.000000	7.627357
1953.000000	7.619557
1952.000000	7.624834
1951.000000	7.598393
1950.000000	7.639529
1949.000000	7.644832
1948.000000	7.619402
1947.000000	7.620619
1946.000000	7.656980
1945.000000	7.584669
1944.000000	7.611672
1943.000000	7.607254
1942.000000	7.667386
1941.000000	7.664764
1940.000000	7.677563
1939.000000	7.632779
1938.000000	7.669435
1937.000000	7.622098
1936.000000	7.633854
1935.000000	7.632867
1934.000000	7.640428
1933.000000	7.621514
1932.000000	7.661507
1931.000000	7.654145
1930.000000	7.650090
1929.000000	7.635818
1928.000000	7.671853
1927.000000	7.600281
1926.000000	7.654128
1925.000000	7.638955
1924.000000	7.648313
1923.000000	7.639587
1922.000000	7.612247
1921.000000	7.649969
1920.000000	7.680876
1919.000000	7.639482
1918.000000	7.620890
1917.000000	7.574081
1916.000000	7.564876
1915.000000	7.601289
1914.000000	7.647319
1913.000000	7.609607
1912.000000	7.595507
1911.000000	7.608740
1910.000000	7.624872
1909.000000	7.623714
1908.000000	7.624669
1907.000000	7.615552
1906.000000	7.654219
1905.000000	7.598072
1904.000000	7.618318
1903.000000	7.625436
1902.000000	7.633580
1901.000000	7.607296
1900.000000	7.614163
1899.000000	7.588472
1898.000000	7.575331
1897.000000	7.581700
1896.000000	7.636360
1895.000000	7.628610
1894.000000	7.616110
1893.000000	7.578835
1892.000000	7.599759
1891.000000	7.662479
1890.000000	7.633983
1889.000000	7.629126
1888.000000	7.615060
1887.000000	7.615358
1886.000000	7.665713
1885.000000	7.657249
1884.000000	7.652606
1883.000000	7.688621
1882.000000	7.694264
1881.000000	7.681144
1880.000000	7.664739
1879.000000	7.690283
1878.000000	7.684189
1877.000000	7.660553
1876.000000	7.676469
1875.000000	7.665611
1874.000000	7.631463
1873.000000	7.656377
1872.000000	7.656897
1871.000000	7.645113
1870.000000	7.622741
1869.000000	7.645973
1868.000000	7.628269
1867.000000	7.648640
1866.000000	7.650020
1865.000000	7.613005
1864.000000	7.600477
1863.000000	7.620786
1862.000000	7.617081
1861.000000	7.618614
1860.000000	7.600956
1859.000000	7.636430
1858.000000	7.639858
1857.000000	7.623779
1856.000000	7.611174
1855.000000	7.629246
1854.000000	7.638477
1853.000000	7.628086
1852.000000	7.656841
1851.000000	7.655585
1850.000000	7.633337
1849.000000	7.676752
1848.000000	7.609304
1847.000000	7.634459
1846.000000	7.653496
1845.000000	7.680953
1844.000000	7.636379
1843.000000	7.669811
1842.000000	7.634019
1841.000000	7.631637
1840.000000	7.642428
1839.000000	7.633171
1838.000000	7.618359
1837.000000	7.666514
1836.000000	7.616721
1835.000000	7.627973
1834.000000	7.603287
1833.000000	7.625447
1832.000000	7.631695
1831.000000	7.644696
1830.000000	7.595870
1829.000000	7.643083
1828.000000	7.602808
1827.000000	7.616603
1826.000000	7.629519
1825.000000	7.634411
1824.000000	7.611058
1823.000000	7.622744
1822.000000	7.604123
1821.000000	7.627980
1820.000000	7.625047
1819.000000	7.642170
1818.000000	7.622403
1817.000000	7.640590
1816.000000	7.640569
1815.000000	7.640781
1814.000000	7.618490
1813.000000	7.646990
1812.000000	7.639292
1811.000000	7.649641
1810.000000	7.629264
1809.000000	7.650810
1808.000000	7.605162
1807.000000	7.669333
1806.000000	7.618224
1805.000000	7.648860
1804.000000	7.645357
1803.000000	7.655041
1802.000000	7.641908
1801.000000	7.676025
1800.000000	7.624511
1799.000000	7.631282
1798.000000	7.624483
1797.000000	7.677020
1796.000000	7.660853
1795.000000	7.685689
1794.000000	7.661832
1793.000000	7.670800
1792.000000	7.640276
1791.000000	7.693355
1790.000000	7.667177
1789.000000	7.693883
1788.000000	7.676131
1787.000000	7.663424
1786.000000	7.664584
1785.000000	7.686948
1784.000000	7.685923
1783.000000	7.678339
1782.000000	7.661402
1781.000000	7.696944
1780.000000	7.679114
1779.000000	7.726877
1778.000000	7.661740
1777.000000	7.703745
1776.000000	7.706731
1775.000000	7.709895
1774.000000	7.674960
1773.000000	7.710389
1772.000000	7.670263
1771.000000	7.688764
1770.000000	7.695014
1769.000000	7.717502
1768.000000	7.638136
1767.000000	7.706889
1766.000000	7.682204
1765.000000	7.704754
1764.000000	7.678098
1763.000000	7.720060
1762.000000	7.661064
1761.000000	7.696545
1760.000000	7.703857
1759.000000	7.700549
1758.000000	7.706748
1757.000000	7.701310
1756.000000	7.698197
1755.000000	7.734676
1754.000000	7.712471
1753.000000	7.702238
1752.000000	7.680666
1751.000000	7.701160
1750.000000	7.706965
1749.000000	7.718780
1748.000000	7.712660
1747.000000	7.745378
1746.000000	7.697352
1745.000000	7.732431
1744.000000	7.673973
1743.000000	7.715034
1742.000000	7.698763
1741.000000	7.704463
1740.000000	7.693876
1739.000000	7.731986
1738.000000	7.709540
1737.000000	7.718650
1736.000000	7.700702
1735.000000	7.734956
1734.000000	7.690075
1733.000000	7.711248
1732.000000	7.715467
1731.000000	7.704262
1730.000000	7.705181
1729.000000	7.722409
1728.000000	7.731978
1727.000000	7.727287
1726.000000	7.694027
1725.000000	7.748181
1724.000000	7.712847
1723.000000	7.712586
1722.000000	7.702225
1721.000000	7.738981
1720.000000	7.706497
1719.000000	7.713006
1718.000000	7.719560
1717.000000	7.745188
1716.000000	7.684478
1715.000000	7.716665
1714.000000	7.707407
1713.000000	7.707634
1712.000000	7.699081
1711.000000	7.712696
1710.000000	7.702807
1709.000000	7.707910
1708.000000	7.701056
1707.000000	7.726029
1706.000000	7.718593
1705.000000	7.709495
1704.000000	7.712322
1703.000000	7.740467
1702.000000	7.722362
1701.000000	7.741750
1700.000000	7.716201
1699.000000	7.743984
1698.000000	7.727193
1697.000000	7.719388
1696.000000	7.704729
1695.000000	7.721298
1694.000000	7.701531
1693.000000	7.734404
1692.000000	7.730595
1691.000000	7.743001
1690.000000	7.724819
1689.000000	7.751072
1688.000000	7.728210
1687.000000	7.724841
1686.000000	7.720405
1685.000000	7.736112
1684.000000	7.725609
1683.000000	7.731910
1682.000000	7.712617
1681.000000	7.743047
1680.000000	7.731129
1679.000000	7.752706
1678.000000	7.742105
1677.000000	7.745265
1676.000000	7.742339
1675.000000	7.749541
1674.000000	7.723478
1673.000000	7.742649
1672.000000	7.726924
1671.000000	7.746819
1670.000000	7.717308
1669.000000	7.712509
1668.000000	7.712735
1667.000000	7.700135
1666.000000	7.709713
1665.000000	7.716215
1664.000000	7.737567
1663.000000	7.728883
1662.000000	7.723708
1661.000000	7.723877
1660.000000	7.718213
1659.000000	7.697105
1658.000000	7.708980
1657.000000	7.708513
1656.000000	7.711542
1655.000000	7.711564
1654.000000	7.705868
1653.000000	7.701212
1652.000000	7.716334
1651.000000	7.713116
1650.000000	7.706304
1649.000000	7.707299
1648.000000	7.709204
1647.000000	7.712497
1646.000000	7.712211
1645.000000	7.703427
1644.000000	7.709394
1643.000000	7.725839
1642.000000	7.721206
1641.000000	7.704166
1640.000000	7.708273
1639.000000	7.712099
1638.000000	7.718611
1637.000000	7.725146
1636.000000	7.723606
1635.000000	7.718848
1634.000000	7.714912
1633.000000	7.719828
1632.000000	7.723147
1631.000000	7.724802
1630.000000	7.712429
1629.000000	7.713478
1628.000000	7.712091
1627.000000	7.728657
1626.000000	7.721418
1625.000000	7.721675
1624.000000	7.716361
1623.000000	7.725387
1622.000000	7.724131
1621.000000	7.726024
1620.000000	7.714263
1619.000000	7.722511
1618.000000	7.701709
1617.000000	7.704039
1616.000000	7.702479
1615.000000	7.700549
1614.000000	7.721915
1613.000000	7.732281
1612.000000	7.712151
1611.000000	7.711940
1610.000000	7.711487
1609.000000	7.723353
1608.000000	7.717299
1607.000000	7.723264
1606.000000	7.702726
1605.000000	7.719544
1604.000000	7.702162
1603.000000	7.714544
1602.000000	7.715485
1601.000000	7.735798
1600.000000	7.730226
1599.000000	7.738540
1598.000000	7.722880
1597.000000	7.720637
1596.000000	7.712996
1595.000000	7.727153
1594.000000	7.732823
1593.000000	7.734984
1592.000000	7.712882
1591.000000	7.734232
1590.000000	7.717255
1589.000000	7.735106
1588.000000	7.724927
1587.000000	7.731727
1586.000000	7.722641
1585.000000	7.731760
1584.000000	7.723166
1583.000000	7.718279
1582.000000	7.718730
1581.000000	7.739815
1580.000000	7.708034
1579.000000	7.729676
1578.000000	7.707023
1577.000000	7.730311
1576.000000	7.720203
1575.000000	7.745386
1574.000000	7.724084
1573.000000	7.721165
1572.000000	7.712526
1571.000000	7.719167
1570.000000	7.707835
1569.000000	7.733016
1568.000000	7.715836
1567.000000	7.731614
1566.000000	7.713461
1565.000000	7.714961
1564.000000	7.706072
1563.000000	7.722395
1562.000000	7.696054
1561.000000	7.716860
1560.000000	7.703171
1559.000000	7.721949
1558.000000	7.711356
1557.000000	7.717177
1556.000000	7.697924
1555.000000	7.700721
1554.000000	7.706880
1553.000000	7.729041
1552.000000	7.695331
1551.000000	7.723907
1550.000000	7.691961
1549.000000	7.704942
1548.000000	7.705401
1547.000000	7.712405
1546.000000	7.703118
1545.000000	7.714976
1544.000000	7.691893
1543.000000	7.703435
1542.000000	7.697547
1541.000000	7.707567
1540.000000	7.700781
1539.000000	7.712444
1538.000000	7.690092
1537.000000	7.721373
1536.000000	7.686669
1535.000000	7.710586
1534.000000	7.674134
1533.000000	7.698934
1532.000000	7.691893
1531.000000	7.718841
1530.000000	7.681017
1529.000000	7.709381
1528.000000	7.689021
1527.000000	7.704654
1526.000000	7.689632
1525.000000	7.722724
1524.000000	7.676976
1523.000000	7.718606
1522.000000	7.691788
1521.000000	7.700668
1520.000000	7.687182
1519.000000	7.698511
1518.000000	7.687559
1517.000000	7.729689
1516.000000	7.685766
1515.000000	7.699920
1514.000000	7.673555
1513.000000	7.702596
1512.000000	7.683384
1511.000000	7.707947
1510.000000	7.684091
1509.000000	7.696717
1508.000000	7.685019
1507.000000	7.701021
1506.000000	7.674264
1505.000000	7.696514
1504.000000	7.670052
1503.000000	7.706691
1502.000000	7.678960
1501.000000	7.700772
1500.000000	7.677842
1499.000000	7.703531
1498.000000	7.682729
1497.000000	7.696740
1496.000000	7.690167
1495.000000	7.691290
1494.000000	7.660147
1493.000000	7.678807
1492.000000	7.671755
1491.000000	7.694131
1490.000000	7.675810
1489.000000	7.689406
1488.000000	7.668011
1487.000000	7.682367
1486.000000	7.679984
1485.000000	7.692225
1484.000000	7.667049
1483.000000	7.686128
1482.000000	7.667451
1481.000000	7.694787
1480.000000	7.661328
1479.000000	7.668854
1478.000000	7.660683
1477.000000	7.672601
1476.000000	7.657426
1475.000000	7.668915
1474.000000	7.662630
1473.000000	7.663596
1472.000000	7.660816
1471.000000	7.664619
1470.000000	7.661068
1469.000000	7.668001
1468.000000	7.646767
1467.000000	7.656925
1466.000000	7.656102
1465.000000	7.659803
1464.000000	7.647708
1463.000000	7.667849
1462.000000	7.662110
1461.000000	7.661598
1460.000000	7.649529
1459.000000	7.657452
1458.000000	7.640946
1457.000000	7.648492
1456.000000	7.644384
1455.000000	7.647352
1454.000000	7.645062
1453.000000	7.662138
1452.000000	7.643856
1451.000000	7.648906
1450.000000	7.642797
1449.000000	7.649840
1448.000000	7.641207
1447.000000	7.646944
1446.000000	7.646367
1445.000000	7.643869
1444.000000	7.634771
1443.000000	7.646723
1442.000000	7.640853
1441.000000	7.639156
1440.000000	7.631998
1439.000000	7.636450
1438.000000	7.629018
1437.000000	7.632865
1436.000000	7.622437
1435.000000	7.634157
1434.000000	7.627693
1433.000000	7.632129
1432.000000	7.623408
1431.000000	7.635893
1430.000000	7.620427
1429.000000	7.622772
1428.000000	7.617264
1427.000000	7.622184
1426.000000	7.615002
1425.000000	7.617985
1424.000000	7.615343
1423.000000	7.625750
1422.000000	7.623920
1421.000000	7.625789
1420.000000	7.619561
1419.000000	7.616824
1418.000000	7.612177
1417.000000	7.616608
1416.000000	7.620866
1415.000000	7.618696
1414.000000	7.616382
1413.000000	7.621634
1412.000000	7.611489
1411.000000	7.623247
1410.000000	7.625554
1409.000000	7.604799
1408.000000	7.599055
1407.000000	7.614542
1406.000000	7.612742
1405.000000	7.605988
1404.000000	7.608745
1403.000000	7.617719
1402.000000	7.612196
1401.000000	7.608414
1400.000000	7.610283
1399.000000	7.621699
1398.000000	7.613433
1397.000000	7.601590
1396.000000	7.616050
1395.000000	7.619333
1394.000000	7.614035
1393.000000	7.607703
1392.000000	7.613695
1391.000000	7.616261
1390.000000	7.617524
1389.000000	7.613951
1388.000000	7.612043
1387.000000	7.607764
1386.000000	7.606869
1385.000000	7.608774
1384.000000	7.612042
1383.000000	7.601694
1382.000000	7.607404
1381.000000	7.607963
1380.000000	7.605638
1379.000000	7.608996
1378.000000	7.607455
1377.000000	7.599127
1376.000000	7.597071
1375.000000	7.596407
1374.000000	7.608111
1373.000000	7.605377
1372.000000	7.606218
1371.000000	7.595182
1370.000000	7.604807
1369.000000	7.606023
1368.000000	7.600510
1367.000000	7.592272
1366.000000	7.588176
1365.000000	7.584270
1364.000000	7.582232
1363.000000	7.559376
1362.000000	7.566304
1361.000000	7.561968
1360.000000	7.554520
1359.000000	7.551330
1358.000000	7.550850
1357.000000	7.540439
1356.000000	7.545815
1355.000000	7.533328
1354.000000	7.534946
1353.000000	7.527079
1352.000000	7.533877
1351.000000	7.536008
1350.000000	7.535713
1349.000000	7.526461
1348.000000	7.534490
1347.000000	7.523689
1346.000000	7.532028
1345.000000	7.520792
1344.000000	7.538365
1343.000000	7.542364
1342.000000	7.549113
1341.000000	7.548444
1340.000000	7.549747
1339.000000	7.545609
1338.000000	7.556368
1337.000000	7.552199
1336.000000	7.561968
1335.000000	7.555540
1334.000000	7.564813
1333.000000	7.563383
1332.000000	7.562777
1331.000000	7.559331
1330.000000	7.565307
1329.000000	7.557561
1328.000000	7.566745
1327.000000	7.563403
1326.000000	7.567109
1325.000000	7.559014
1324.000000	7.570748
1323.000000	7.567296
1322.000000	7.565665
1321.000000	7.561959
1320.000000	7.560753
1319.000000	7.557234
1318.000000	7.557017
1317.000000	7.550685
1316.000000	7.562814
1315.000000	7.557196
1314.000000	7.565888
1313.000000	7.555525
1312.000000	7.565827
1311.000000	7.558979
1310.000000	7.554772
1309.000000	7.537194
1308.000000	7.555864
1307.000000	7.547344
1306.000000	7.556979
1305.000000	7.538744
1304.000000	7.557498
1303.000000	7.542994
1302.000000	7.554120
1301.000000	7.546582
1300.000000	7.550159
1299.000000	7.545100
1298.000000	7.548675
1297.000000	7.537626
1296.000000	7.544813
1295.000000	7.533283
1294.000000	7.559166
1293.000000	7.545216
1292.000000	7.547257
1291.000000	7.544308
1290.000000	7.546051
1289.000000	7.537791
1288.000000	7.561060
1287.000000	7.547943
1286.000000	7.563677
1285.000000	7.546865
1284.000000	7.561332
1283.000000	7.543424
1282.000000	7.558998
1281.000000	7.549820
1280.000000	7.554956
1279.000000	7.552645
1278.000000	7.563163
1277.000000	7.541056
1276.000000	7.558905
1275.000000	7.548685
1274.000000	7.564149
1273.000000	7.553607
1272.000000	7.570849
1271.000000	7.548718
1270.000000	7.565957
1269.000000	7.546632
1268.000000	7.569229
1267.000000	7.553134
1266.000000	7.559860
1265.000000	7.543302
1264.000000	7.559386
1263.000000	7.545375
1262.000000	7.563572
1261.000000	7.546879
1260.000000	7.564744
1259.000000	7.548235
1258.000000	7.558524
1257.000000	7.545002
1256.000000	7.557949
1255.000000	7.542306
1254.000000	7.546924
1253.000000	7.549258
1252.000000	7.555359
1251.000000	7.552089
1250.000000	7.551571
1249.000000	7.547418
1248.000000	7.550820
1247.000000	7.545742
1246.000000	7.566539
1245.000000	7.546404
1244.000000	7.557726
1243.000000	7.553865
1242.000000	7.561449
1241.000000	7.547205
1240.000000	7.559518
1239.000000	7.555236
1238.000000	7.562003
1237.000000	7.560388
1236.000000	7.564924
1235.000000	7.549473
1234.000000	7.566275
1233.000000	7.567582
1232.000000	7.571883
1231.000000	7.564258
1230.000000	7.571470
1229.000000	7.561922
1228.000000	7.564632
1227.000000	7.561167
1226.000000	7.568968
1225.000000	7.568425
1224.000000	7.574089
1223.000000	7.562575
1222.000000	7.568743
1221.000000	7.558030
1220.000000	7.575175
1219.000000	7.568713
1218.000000	7.573580
1217.000000	7.557055
1216.000000	7.565261
1215.000000	7.560124
1214.000000	7.567355
1213.000000	7.558647
1212.000000	7.566613
1211.000000	7.556050
1210.000000	7.561258
1209.000000	7.559571
1208.000000	7.565079
1207.000000	7.561622
1206.000000	7.561596
1205.000000	7.555692
1204.000000	7.563833
1203.000000	7.557459
1202.000000	7.562730
1201.000000	7.555570
1200.000000	7.565989
1199.000000	7.568367
1198.000000	7.569254
1197.000000	7.557320
1196.000000	7.573322
1195.000000	7.564522
1194.000000	7.576469
1193.000000	7.573429
1192.000000	7.580495
1191.000000	7.579625
1190.000000	7.579491
1189.000000	7.563763
1188.000000	7.566254
1187.000000	7.569864
1186.000000	7.570097
1185.000000	7.573783
1184.000000	7.580336
1183.000000	7.578056
1182.000000	7.581940
1181.000000	7.575564
1180.000000	7.580426
1179.000000	7.582066
1178.000000	7.586321
1177.000000	7.579484
1176.000000	7.589158
1175.000000	7.590224
1174.000000	7.585502
1173.000000	7.582955
1172.000000	7.587622
1171.000000	7.581477
1170.000000	7.587948
1169.000000	7.587171
1168.000000	7.589366
1167.000000	7.591729
1166.000000	7.588119
1165.000000	7.593690
1164.000000	7.593014
1163.000000	7.592113
1162.000000	7.600458
1161.000000	7.592860
1160.000000	7.600140
1159.000000	7.600519
1158.000000	7.601324
1157.000000	7.600950
1156.000000	7.592799
1155.000000	7.596106
1154.000000	7.602495
1153.000000	7.602422
1152.000000	7.602524
1151.000000	7.603900
1150.000000	7.606271
1149.000000	7.609116
1148.000000	7.607985
1147.000000	7.608244
1146.000000	7.608141
1145.000000	7.605476
1144.000000	7.606065
1143.000000	7.610139
1142.000000	7.614829
1141.000000	7.619356
1140.000000	7.617727
1139.000000	7.616776
1138.000000	7.616732
1137.000000	7.618365
1136.000000	7.614687
1135.000000	7.613859
1134.000000	7.615142
1133.000000	7.625683
1132.000000	7.623500
1131.000000	7.621864
1130.000000	7.621941
1129.000000	7.624884
1128.000000	7.623203
1127.000000	7.628867
1126.000000	7.625116
1125.000000	7.630126
1124.000000	7.633836
1123.000000	7.637803
1122.000000	7.631011
1121.000000	7.637073
1120.000000	7.628802
1119.000000	7.634535
1118.000000	7.637021
1117.000000	7.629961
1116.000000	7.630043
1115.000000	7.644175
1114.000000	7.640400
1113.000000	7.642838
1112.000000	7.639533
1111.000000	7.652602
1110.000000	7.652336
1109.000000	7.655588
1108.000000	7.650915
1107.000000	7.656786
1106.000000	7.652031
1105.000000	7.664139
1104.000000	7.667188
1103.000000	7.677580
1102.000000	7.674780
1101.000000	7.683627
1100.000000	7.680901
1099.000000	7.694172
1098.000000	7.683973
1097.000000	7.692210
1096.000000	7.686374
1095.000000	7.702485
1094.000000	7.700892
1093.000000	7.715594
1092.000000	7.705468
1091.000000	7.707930
1090.000000	7.699791
1089.000000	7.717379
1088.000000	7.711897
1087.000000	7.721527
1086.000000	7.708809
1085.000000	7.719871
1084.000000	7.719712
1083.000000	7.713899
1082.000000	7.713425
1081.000000	7.725522
1080.000000	7.718998
1079.000000	7.730230
1078.000000	7.719445
1077.000000	7.741399
1076.000000	7.729439
1075.000000	7.737545
1074.000000	7.724070
1073.000000	7.741798
1072.000000	7.730015
1071.000000	7.737472
1070.000000	7.735096
1069.000000	7.750898
1068.000000	7.735081
1067.000000	7.749129
1066.000000	7.747035
1065.000000	7.752321
1064.000000	7.752942
1063.000000	7.753691
1062.000000	7.747839
1061.000000	7.766574
1060.000000	7.757089
1059.000000	7.777637
1058.000000	7.763669
1057.000000	7.780279
1056.000000	7.753367
1055.000000	7.776015
1054.000000	7.764132
1053.000000	7.775345
1052.000000	7.775166
1051.000000	7.783737
1050.000000	7.780117
1049.000000	7.789757
1048.000000	7.790246
1047.000000	7.789628
1046.000000	7.781024
1045.000000	7.800348
1044.000000	7.796827
1043.000000	7.806881
1042.000000	7.791064
1041.000000	7.810299
1040.000000	7.803707
1039.000000	7.818151
1038.000000	7.803895
1037.000000	7.833697
1036.000000	7.816183
1035.000000	7.822847
1034.000000	7.809540
1033.000000	7.841290
1032.000000	7.819595
1031.000000	7.855926
1030.000000	7.830637
1029.000000	7.860782
1028.000000	7.830744
1027.000000	7.851237
1026.000000	7.839928
1025.000000	7.852285
1024.000000	7.874464
1023.000000	7.851964
1022.000000	7.868919
1021.000000	7.856891
1020.000000	7.894372
1019.000000	7.864751
1018.000000	7.895440
1017.000000	7.878927
1016.000000	7.895282
1015.000000	7.885296
1014.000000	7.909387
1013.000000	7.888018
1012.000000	7.909383
1011.000000	7.906648
1010.000000	7.913210
1009.000000	7.903462
1008.000000	7.921846
1007.000000	7.914670
1006.000000	7.935945
1005.000000	7.936400
1004.000000	7.934112
1003.000000	7.932246
1002.000000	7.958123
1001.000000	7.938556
1000.000000	7.933370
999.000000	7.946814
998.000000	7.960050
997.000000	7.933910
996.000000	7.956550
995.000000	7.949657
994.000000	7.971854
993.000000	7.961560
992.000000	7.965252
991.000000	7.981111
990.000000	7.992488
989.000000	7.970677
988.000000	7.997522
987.000000	7.983691
986.000000	8.019637
985.000000	7.998958
984.000000	8.018778
983.000000	8.009765
982.000000	8.016557
981.000000	7.998487
980.000000	8.038652
979.000000	8.027982
978.000000	8.032466
977.000000	8.048593
976.000000	8.044921
975.000000	8.039501
974.000000	8.069275
973.000000	8.065865
972.000000	8.073739
971.000000	8.062293
970.000000	8.093854
969.000000	8.117927
968.000000	8.127770
967.000000	8.123330
966.000000	8.141518
965.000000	8.144784
964.000000	8.159093
963.000000	8.159744
962.000000	8.189798
961.000000	8.161811
960.000000	8.194177
959.000000	8.186744
958.000000	8.208373
957.000000	8.202780
956.000000	8.207223
955.000000	8.195703
954.000000	8.225176
953.000000	8.232857
952.000000	8.268378
951.000000	8.234431
950.000000	8.243817
949.000000	8.255114
948.000000	8.276848
947.000000	8.275307
946.000000	8.282729
945.000000	8.294579
944.000000	8.311277
943.000000	8.296087
942.000000	8.314682
941.000000	8.321096
940.000000	8.356790
939.000000	8.336562
938.000000	8.323567
937.000000	8.322744
936.000000	8.363977
935.000000	8.373915
934.000000	8.400239
933.000000	8.378761
932.000000	8.377367
931.000000	8.379411
930.000000	8.433538
929.000000	8.455864
928.000000	8.454930
927.000000	8.439598
926.000000	8.439030
925.000000	8.435086
924.000000	8.467844
923.000000	8.469141
922.000000	8.468825
921.000000	8.473218
920.000000	8.503017
919.000000	8.533605
918.000000	8.536327
917.000000	8.540415
916.000000	8.579153
915.000000	8.560456
914.000000	8.578155
913.000000	8.609567
912.000000	8.620656
911.000000	8.608271
910.000000	8.626119
909.000000	8.637294
908.000000	8.644397
907.000000	8.694055
906.000000	8.734633
905.000000	8.748571
904.000000	8.719549
903.000000	8.682108
902.000000	8.714034
901.000000	8.773273
900.000000	8.784502
899.000000	8.774950
898.000000	8.777992
897.000000	8.782650
896.000000	8.796725
895.000000	8.795930
894.000000	8.808665
893.000000	8.840956
892.000000	8.865392
891.000000	8.891280
890.000000	8.879070
889.000000	8.886083
888.000000	8.871578
887.000000	8.883318
886.000000	8.892828
885.000000	8.913538
884.000000	8.950303
883.000000	8.956653
882.000000	8.897612
881.000000	8.967500
880.000000	8.977285
879.000000	8.982911
878.000000	9.030746
877.000000	9.134945
876.000000	9.063845
875.000000	9.114501
874.000000	9.026795
873.000000	9.033424
872.000000	9.096935
871.000000	9.216549
870.000000	9.136503
869.000000	9.140527
868.000000	9.160442
867.000000	9.272199
866.000000	9.188605
865.000000	9.209459
864.000000	9.234025
863.000000	9.224389
862.000000	9.171400
861.000000	9.262346
860.000000	8.990679
859.000000	8.844845
858.000000	8.841949
857.000000	8.829654
856.000000	8.841280
855.000000	8.845813
854.000000	8.875622
853.000000	8.914498
852.000000	8.954937
851.000000	8.908170
850.000000	8.943366
849.000000	8.948126
848.000000	8.954717
847.000000	8.951706
846.000000	8.956750
845.000000	8.978971
844.000000	8.993190
843.000000	8.990670
842.000000	9.028888
841.000000	9.006241
840.000000	8.979668
839.000000	8.992675
838.000000	8.997911
837.000000	9.016839
836.000000	9.019047
835.000000	9.034112
834.000000	9.032549
833.000000	9.051739
832.000000	9.035480
831.000000	9.043855
830.000000	9.056051
829.000000	9.081145
828.000000	9.071796
827.000000	9.079129
826.000000	9.064315
825.000000	9.074706
824.000000	9.092042
823.000000	9.095861
822.000000	9.083506
821.000000	9.076694
820.000000	9.085283
819.000000	9.081598
818.000000	9.094951
817.000000	9.102781
816.000000	9.094041
815.000000	9.069170
814.000000	9.093874
813.000000	9.081786
812.000000	9.082573
811.000000	9.091586
810.000000	9.093805
809.000000	9.094803
808.000000	9.084238
807.000000	9.090874
806.000000	9.095129
805.000000	9.096683
804.000000	9.107967
803.000000	9.091737
802.000000	9.087241
801.000000	9.087161
800.000000	9.091280
799.000000	9.088995
798.000000	9.084841
797.000000	9.092984
796.000000	9.090733
795.000000	9.075703
794.000000	9.089461
793.000000	9.080697
792.000000	9.075598
791.000000	9.080455
790.000000	9.075729
789.000000	9.067803
788.000000	9.071609
787.000000	9.086620
786.000000	9.067012
785.000000	9.082371
784.000000	9.075852
783.000000	9.059997
782.000000	9.091148
781.000000	9.062487
780.000000	9.053590
779.000000	9.068656
778.000000	9.059589
777.000000	9.053601
776.000000	9.057552
775.000000	9.050745
774.000000	9.051746
773.000000	9.064219
772.000000	9.055601
771.000000	9.052910
770.000000	9.061404
769.000000	9.050646
768.000000	9.048762
767.000000	9.053426
766.000000	9.047476
765.000000	9.050050
764.000000	9.049353
763.000000	9.042761
762.000000	9.045051
761.000000	9.045454
760.000000	9.041495
759.000000	9.040816
758.000000	9.052909
757.000000	9.048307
756.000000	9.049478
755.000000	9.041781
754.000000	9.049187
753.000000	9.038869
752.000000	9.049486
751.000000	9.055159
750.000000	9.039616
749.000000	9.042433
748.000000	9.049897
747.000000	9.040282
746.000000	9.054589
745.000000	9.046213
744.000000	9.040886
743.000000	9.044093
742.000000	9.045343
741.000000	9.032994
740.000000	9.048911
739.000000	9.039017
738.000000	9.047338
737.000000	9.042480
736.000000	9.044213
735.000000	9.050879
734.000000	9.051786
733.000000	9.040845
732.000000	9.050149
731.000000	9.055143
730.000000	9.052444
729.000000	9.053275
728.000000	9.057973
727.000000	9.055968
726.000000	9.066135
725.000000	9.052554
724.000000	9.053640
723.000000	9.058716
722.000000	9.063949
721.000000	9.062026
720.000000	9.061922
719.000000	9.064549
718.000000	9.061608
717.000000	9.071644
716.000000	9.068186
715.000000	9.064701
714.000000	9.066847
713.000000	9.067973
712.000000	9.078111
711.000000	9.069329
710.000000	9.066004
709.000000	9.072849
708.000000	9.072881
707.000000	9.071796
706.000000	9.079205
705.000000	9.082284
704.000000	9.075898
703.000000	9.080771
702.000000	9.088526
701.000000	9.085697
700.000000	9.081207
699.000000	9.083937
698.000000	9.089201
697.000000	9.086994
696.000000	9.084663
695.000000	9.094566
694.000000	9.099800
693.000000	9.094967
692.000000	9.096747
691.000000	9.098320
690.000000	9.094689
689.000000	9.105417
688.000000	9.113846
687.000000	9.112165
686.000000	9.111056
685.000000	9.112337
684.000000	9.114467
683.000000	9.117318
682.000000	9.118352
681.000000	9.121109
680.000000	9.127631
679.000000	9.132777
678.000000	9.133156
677.000000	9.127719
676.000000	9.133184
675.000000	9.141031
674.000000	9.140904
673.000000	9.142037
672.000000	9.143230
671.000000	9.148198
670.000000	9.145482
669.000000	9.147199
668.000000	9.149274
667.000000	9.153444
666.000000	9.152219
665.000000	9.153826
664.000000	9.159675
663.000000	9.162584
662.000000	9.162617
661.000000	9.162624
660.000000	9.165866
659.000000	9.169068
658.000000	9.170649
657.000000	9.173222
656.000000	9.179291
655.000000	9.182586
654.000000	9.178192
653.000000	9.178236
652.000000	9.181163
651.000000	9.184904
650.000000	9.188850
649.000000	9.189235
648.000000	9.193093
647.000000	9.196827
646.000000	9.199084
645.000000	9.200788
644.000000	9.201684
643.000000	9.202012
642.000000	9.202032
641.000000	9.206789
640.000000	9.210480
639.000000	9.210684
638.000000	9.213801
637.000000	9.217475
636.000000	9.221650
635.000000	9.222704
634.000000	9.226587
633.000000	9.229644
632.000000	9.232028
631.000000	9.234369
630.000000	9.235956
629.000000	9.235938
628.000000	9.236232
627.000000	9.239421
626.000000	9.247792
625.000000	9.246426
624.000000	9.247759
623.000000	9.248360
622.000000	9.252329
621.000000	9.254185
620.000000	9.256265
619.000000	9.261261
618.000000	9.264873
617.000000	9.267462
616.000000	9.273546
615.000000	9.274854
614.000000	9.276277
613.000000	9.279305
612.000000	9.278805
611.000000	9.280789
610.000000	9.285624
609.000000	9.287401
608.000000	9.289139
607.000000	9.291464
606.000000	9.293353
605.000000	9.294837
604.000000	9.296414
603.000000	9.302175
602.000000	9.304170
601.000000	9.306000
600.000000	9.313018
599.000000	9.309875
598.000000	9.314575
597.000000	9.318772
596.000000	9.322909
595.000000	9.324189
594.000000	9.323350
593.000000	9.333323
592.000000	9.331026
591.000000	9.333581
590.000000	9.338062
589.000000	9.332488
588.000000	9.341910
587.000000	9.342791
586.000000	9.344789
585.000000	9.345177
584.000000	9.350686
583.000000	9.352699
582.000000	9.360897
581.000000	9.353427
580.000000	9.363336
579.000000	9.366483
578.000000	9.370419
577.000000	9.370628
576.000000	9.372648
575.000000	9.372443
574.000000	9.376396
573.000000	9.377364
572.000000	9.383196
571.000000	9.384541
570.000000	9.388259
569.000000	9.390402
568.000000	9.395387
567.000000	9.394540
566.000000	9.400437
565.000000	9.397414
564.000000	9.405512
563.000000	9.402960
562.000000	9.403193
561.000000	9.409033
560.000000	9.412608
559.000000	9.414074
558.000000	9.414980
557.000000	9.422945
556.000000	9.420032
555.000000	9.425000
554.000000	9.424010
553.000000	9.426331
552.000000	9.428845
551.000000	9.432277
550.000000	9.429704
549.000000	9.437640
548.000000	9.439863
547.000000	9.446627
546.000000	9.442845
545.000000	9.450070
544.000000	9.446848
543.000000	9.451971
542.000000	9.455533
541.000000	9.457278
540.000000	9.460344
539.000000	9.458883
538.000000	9.460884
537.000000	9.468340
536.000000	9.465187
535.000000	9.478374
534.000000	9.466028
533.000000	9.474613
532.000000	9.470232
531.000000	9.478936
530.000000	9.478721
529.000000	9.480579
528.000000	9.478170
527.000000	9.492995
526.000000	9.489256
525.000000	9.493339
524.000000	9.492972
523.000000	9.498126
522.000000	9.509779
521.000000	9.510702
520.000000	9.509813
519.000000	9.519430
518.000000	9.518239
517.000000	9.526746
516.000000	9.530314
515.000000	9.532817
514.000000	9.536337
513.000000	9.537411
512.000000	9.544014
511.000000	9.544836
510.000000	9.559707
509.000000	9.561725
508.000000	9.564090
507.000000	9.576068
506.000000	9.579306
505.000000	9.591363
504.000000	9.590081
503.000000	9.590786
502.000000	9.596413
501.000000	9.603511
500.000000	9.604394
499.000000	9.608995
498.000000	9.612616
497.000000	9.621380
496.000000	9.622526
495.000000	9.623712
494.000000	9.629985
493.000000	9.624699
492.000000	9.620550
491.000000	9.629643
490.000000	9.629751
489.000000	9.634727
488.000000	9.622721
487.000000	9.619485
486.000000	9.618986
485.000000	9.619272
484.000000	9.620381
483.000000	9.622013
482.000000	9.613793
481.000000	9.612076
480.000000	9.611920
479.000000	9.614994
478.000000	9.616514
477.000000	9.618906
476.000000	9.611476
475.000000	9.626675
474.000000	9.625796
473.000000	9.627637
472.000000	9.627782
471.000000	9.633916
470.000000	9.635738
469.000000	9.641722
468.000000	9.644155
467.000000	9.652530
466.000000	9.652240
465.000000	9.661015
464.000000	9.664337
463.000000	9.665349
462.000000	9.665951
461.000000	9.671438
460.000000	9.677525
459.000000	9.686213
458.000000	9.688229
457.000000	9.693350
456.000000	9.697522
455.000000	9.695632
454.000000	9.702256
453.000000	9.709965
452.000000	9.707089
451.000000	9.709848
450.000000	9.712377
449.000000	9.713710
448.000000	9.716187
447.000000	9.715464
446.000000	9.708693
445.000000	9.709649
444.000000	9.706647
443.000000	9.706397
442.000000	9.708151
441.000000	9.710685
440.000000	9.708830
439.000000	9.711207
438.000000	9.713594
437.000000	9.718362
436.000000	9.718656
435.000000	9.714476
434.000000	9.717824
433.000000	9.723829
432.000000	9.724240
431.000000	9.730849
430.000000	9.738331
429.000000	9.739281
428.000000	9.742010
427.000000	9.746475
426.000000	9.742470
425.000000	9.743900
424.000000	9.749362
423.000000	9.751541
422.000000	9.756847
421.000000	9.758231
420.000000	9.756532
419.000000	9.761836
418.000000	9.762852
417.000000	9.763505
416.000000	9.769948
415.000000	9.775682
414.000000	9.780391
413.000000	9.783391
412.000000	9.785619
411.000000	9.787764
410.000000	9.792912
409.000000	9.796974
408.000000	9.803258
407.000000	9.808195
406.000000	9.809423
405.000000	9.818696
404.000000	9.827548
403.000000	9.824022
402.000000	9.822255
401.000000	9.820271
400.000000	9.821512
399.000000	9.823526
398.000000	9.816086
397.000000	9.813084
396.000000	9.807353
395.000000	9.794153
394.000000	9.787159
393.000000	9.779304
392.000000	9.773515
391.000000	9.768140
390.000000	9.751470
389.000000	9.732171
388.000000	9.713367
387.000000	9.695152
386.000000	9.679518
385.000000	9.659580
384.000000	9.639126
383.000000	9.615813
382.000000	9.605385
381.000000	9.600485
380.000000	9.600578
379.000000	9.611923
378.000000	9.611005
377.000000	9.631371
376.000000	9.661964
375.000000	9.694749
374.000000	9.710816
373.000000	9.716684
372.000000	9.717314
371.000000	9.730432
370.000000	9.736134
369.000000	9.732603
368.000000	9.719000
367.000000	9.712740
366.000000	9.694122
365.000000	9.702866
364.000000	9.677042
363.000000	9.652846
362.000000	9.614448
361.000000	9.607932
360.000000	9.577966
359.000000	9.546352
358.000000	9.513995
357.000000	9.486293
356.000000	9.440003
355.000000	9.384439
354.000000	9.330132
353.000000	9.275528
352.000000	9.224886
351.000000	9.139695
350.000000	9.067660
349.000000	8.996598
348.000000	8.916512
347.000000	8.812416
346.000000	8.727079
345.000000	8.640190
344.000000	8.526371
343.000000	8.414068
342.000000	8.311093
341.000000	8.168758
340.000000	8.037885
339.000000	7.900514
338.000000	7.769158
337.000000	7.616546
336.000000	7.493215
335.000000	7.319775
334.000000	7.168477
333.000000	7.009877
332.000000	6.883480
331.000000	6.741863
330.000000	6.595080
329.000000	6.459187
328.000000	6.326868
327.000000	6.205869
326.000000	6.080518
325.000000	5.978164
324.000000	5.871476
323.000000	5.806878
322.000000	5.732431
321.000000	5.681970
320.000000	5.627699
319.000000	5.568748
318.000000	5.513826
317.000000	5.484423
316.000000	5.470676
315.000000	5.462744
314.000000	5.457103
313.000000	5.449285
312.000000	5.450941
311.000000	5.451578
310.000000	5.446681
309.000000	5.449725
308.000000	5.469799
307.000000	5.455819
306.000000	5.468434
305.000000	5.472379
304.000000	5.487486
303.000000	5.481974
302.000000	5.502372
301.000000	5.510644
300.000000	5.525410
