PE UV       SUBTECH     SPECTRUM    ASCII       PEDS        4.00        
   -1
Sample425.Sample.asc
10/02/23
11:20:02.00
10/02/23
11:20:02.00
Analyst
vetro indesit nudo
300.000000
1
Lambda 950
950N6032301
PerkinElmer UV WinLab 5.1.5.0637 / 1.61.00 Lambda 900

0
0
3350/servo 860.8/2
0
0
UV/VIS
1
1
1
RBeamAtt,SBeamAtt,150mm sphere / downward view
0
0
0
0
Program
Program
3350/servo 860.8/2
3350/1 860.8/1
3350/1 860.8/1
0
1
 
 
 
0
 
860.8
319.2
860.8
Front
100
 
S:100 R:100
 
0
0
0
 
0
 
 
 
0
 
 
0
0
0
0
0
 
 
 
 
0
0
#HDR
-1
-1
#GR
nm
%T
1.0
0.0
2500.000000
-1.000000
2201
8
91.123388
0.032852
#DATA
2500.000000	83.901302
2499.000000	83.657676
2498.000000	83.175750
2497.000000	82.995798
2496.000000	83.534404
2495.000000	83.355759
2494.000000	84.024686
2493.000000	83.559385
2492.000000	83.523285
2491.000000	83.387526
2490.000000	83.333366
2489.000000	83.184326
2488.000000	83.570879
2487.000000	83.499230
2486.000000	83.820667
2485.000000	83.720500
2484.000000	83.680922
2483.000000	83.387303
2482.000000	83.376574
2481.000000	83.422822
2480.000000	83.495196
2479.000000	83.231554
2478.000000	83.700481
2477.000000	83.398998
2476.000000	83.865635
2475.000000	83.898604
2474.000000	83.785013
2473.000000	83.754997
2472.000000	83.715807
2471.000000	84.089198
2470.000000	84.087426
2469.000000	83.712934
2468.000000	83.529378
2467.000000	83.407096
2466.000000	83.715038
2465.000000	83.817904
2464.000000	84.084314
2463.000000	84.055976
2462.000000	83.954469
2461.000000	84.033197
2460.000000	83.930365
2459.000000	83.956798
2458.000000	84.110442
2457.000000	84.316411
2456.000000	84.159828
2455.000000	83.902673
2454.000000	84.055942
2453.000000	84.086673
2452.000000	84.121078
2451.000000	83.623256
2450.000000	83.836223
2449.000000	83.949448
2448.000000	84.126902
2447.000000	84.272147
2446.000000	84.242235
2445.000000	84.254516
2444.000000	84.457216
2443.000000	84.147027
2442.000000	84.177758
2441.000000	84.479325
2440.000000	84.671532
2439.000000	84.422192
2438.000000	84.569397
2437.000000	84.626350
2436.000000	84.386212
2435.000000	84.635999
2434.000000	84.871980
2433.000000	84.652055
2432.000000	84.378520
2431.000000	84.349763
2430.000000	84.409165
2429.000000	84.570323
2428.000000	84.585903
2427.000000	84.581123
2426.000000	84.635638
2425.000000	84.780510
2424.000000	84.846734
2423.000000	84.562050
2422.000000	84.523050
2421.000000	84.683305
2420.000000	84.624239
2419.000000	84.744293
2418.000000	84.723616
2417.000000	84.730227
2416.000000	84.727245
2415.000000	84.563478
2414.000000	84.795354
2413.000000	84.822544
2412.000000	84.704786
2411.000000	84.771231
2410.000000	84.996108
2409.000000	85.297213
2408.000000	85.073507
2407.000000	84.736237
2406.000000	84.919639
2405.000000	85.024043
2404.000000	84.675709
2403.000000	84.652304
2402.000000	84.638824
2401.000000	84.749446
2400.000000	84.597631
2399.000000	84.866820
2398.000000	85.217536
2397.000000	85.239417
2396.000000	85.165952
2395.000000	85.130244
2394.000000	85.107375
2393.000000	85.101779
2392.000000	85.253055
2391.000000	85.012047
2390.000000	84.890378
2389.000000	85.180594
2388.000000	85.267929
2387.000000	84.979152
2386.000000	84.847089
2385.000000	84.862186
2384.000000	85.096022
2383.000000	85.277906
2382.000000	85.207715
2381.000000	85.350539
2380.000000	85.096652
2379.000000	84.944621
2378.000000	84.985698
2377.000000	85.020909
2376.000000	85.012534
2375.000000	85.040578
2374.000000	85.024002
2373.000000	84.859082
2372.000000	84.835111
2371.000000	84.966012
2370.000000	85.323585
2369.000000	85.282933
2368.000000	85.099859
2367.000000	84.975796
2366.000000	85.029448
2365.000000	85.148011
2364.000000	85.346900
2363.000000	85.365915
2362.000000	85.379345
2361.000000	85.357888
2360.000000	85.386469
2359.000000	85.358821
2358.000000	85.247962
2357.000000	85.108720
2356.000000	85.153864
2355.000000	85.228649
2354.000000	85.277740
2353.000000	85.463091
2352.000000	85.220814
2351.000000	84.980023
2350.000000	85.093860
2349.000000	85.170242
2348.000000	85.110066
2347.000000	85.245768
2346.000000	85.404403
2345.000000	85.560579
2344.000000	85.354655
2343.000000	85.388210
2342.000000	85.415115
2341.000000	85.347386
2340.000000	85.318214
2339.000000	85.390874
2338.000000	85.473540
2337.000000	85.401846
2336.000000	85.423452
2335.000000	85.523472
2334.000000	85.432380
2333.000000	85.415266
2332.000000	85.222068
2331.000000	85.422147
2330.000000	85.467264
2329.000000	85.424362
2328.000000	85.393665
2327.000000	85.254013
2326.000000	85.318971
2325.000000	85.649949
2324.000000	85.294846
2323.000000	85.292565
2322.000000	85.185822
2321.000000	85.156758
2320.000000	85.009631
2319.000000	85.078398
2318.000000	85.004484
2317.000000	84.998831
2316.000000	84.905851
2315.000000	84.980511
2314.000000	85.088492
2313.000000	85.117317
2312.000000	85.129287
2311.000000	85.036214
2310.000000	85.110468
2309.000000	85.012455
2308.000000	84.942294
2307.000000	84.946776
2306.000000	85.127065
2305.000000	84.948485
2304.000000	84.982392
2303.000000	84.899706
2302.000000	84.888823
2301.000000	84.975927
2300.000000	85.052082
2299.000000	85.058010
2298.000000	84.874758
2297.000000	84.894548
2296.000000	84.952205
2295.000000	85.075753
2294.000000	85.058015
2293.000000	85.077921
2292.000000	84.986287
2291.000000	85.069477
2290.000000	84.814070
2289.000000	84.921419
2288.000000	85.055966
2287.000000	85.089109
2286.000000	84.913479
2285.000000	84.947297
2284.000000	85.001163
2283.000000	84.730849
2282.000000	84.713882
2281.000000	84.914021
2280.000000	84.767109
2279.000000	84.631296
2278.000000	84.762309
2277.000000	84.846278
2276.000000	84.781084
2275.000000	84.813487
2274.000000	84.695288
2273.000000	84.777508
2272.000000	84.597702
2271.000000	84.661080
2270.000000	84.630086
2269.000000	84.695904
2268.000000	84.579614
2267.000000	84.479084
2266.000000	84.552504
2265.000000	84.628407
2264.000000	84.487395
2263.000000	84.553739
2262.000000	84.454869
2261.000000	84.522998
2260.000000	84.518082
2259.000000	84.506538
2258.000000	84.479735
2257.000000	84.499330
2256.000000	84.531989
2255.000000	84.533412
2254.000000	84.355943
2253.000000	84.549132
2252.000000	84.528006
2251.000000	84.371361
2250.000000	84.392292
2249.000000	84.427208
2248.000000	84.421668
2247.000000	84.400580
2246.000000	84.342696
2245.000000	84.353695
2244.000000	84.299373
2243.000000	84.358425
2242.000000	84.425538
2241.000000	84.393381
2240.000000	84.480115
2239.000000	84.437251
2238.000000	84.380732
2237.000000	84.356143
2236.000000	84.474947
2235.000000	84.357561
2234.000000	84.386568
2233.000000	84.413607
2232.000000	84.363454
2231.000000	84.495085
2230.000000	84.446477
2229.000000	84.420545
2228.000000	84.408367
2227.000000	84.280990
2226.000000	84.233681
2225.000000	84.430889
2224.000000	84.410327
2223.000000	84.378543
2222.000000	84.332202
2221.000000	84.385446
2220.000000	84.273453
2219.000000	84.260731
2218.000000	84.365412
2217.000000	84.345396
2216.000000	84.305774
2215.000000	84.407573
2214.000000	84.456158
2213.000000	84.520095
2212.000000	84.460293
2211.000000	84.458456
2210.000000	84.444513
2209.000000	84.604579
2208.000000	84.543919
2207.000000	84.545080
2206.000000	84.516818
2205.000000	84.643413
2204.000000	84.530984
2203.000000	84.631378
2202.000000	84.763395
2201.000000	84.820429
2200.000000	84.709237
2199.000000	84.814683
2198.000000	84.886046
2197.000000	84.915544
2196.000000	84.976244
2195.000000	84.918858
2194.000000	84.982642
2193.000000	84.969485
2192.000000	84.931909
2191.000000	85.159631
2190.000000	85.138730
2189.000000	85.123399
2188.000000	85.248371
2187.000000	85.326062
2186.000000	85.365924
2185.000000	85.443676
2184.000000	85.386114
2183.000000	85.336012
2182.000000	85.390279
2181.000000	85.498261
2180.000000	85.614568
2179.000000	85.511112
2178.000000	85.616652
2177.000000	85.670483
2176.000000	85.649312
2175.000000	85.589807
2174.000000	85.535649
2173.000000	85.599859
2172.000000	85.672763
2171.000000	85.676115
2170.000000	85.666444
2169.000000	85.710394
2168.000000	85.700603
2167.000000	85.734543
2166.000000	85.684277
2165.000000	85.748493
2164.000000	85.853906
2163.000000	86.036181
2162.000000	85.936681
2161.000000	85.837170
2160.000000	85.823513
2159.000000	85.746120
2158.000000	85.871548
2157.000000	85.944486
2156.000000	85.891734
2155.000000	85.884168
2154.000000	85.876952
2153.000000	85.927151
2152.000000	85.889633
2151.000000	85.905009
2150.000000	86.006081
2149.000000	85.988948
2148.000000	85.877265
2147.000000	85.935772
2146.000000	86.062174
2145.000000	86.050738
2144.000000	86.052661
2143.000000	86.015786
2142.000000	85.965122
2141.000000	86.054029
2140.000000	86.024453
2139.000000	86.008750
2138.000000	86.051055
2137.000000	85.992628
2136.000000	86.017040
2135.000000	86.050475
2134.000000	86.085228
2133.000000	86.020594
2132.000000	85.940587
2131.000000	85.992132
2130.000000	86.069954
2129.000000	86.135804
2128.000000	86.266815
2127.000000	86.265097
2126.000000	86.160072
2125.000000	86.191389
2124.000000	86.222738
2123.000000	86.227564
2122.000000	86.268468
2121.000000	86.161214
2120.000000	86.174799
2119.000000	86.336112
2118.000000	86.338893
2117.000000	86.295385
2116.000000	86.394434
2115.000000	86.387698
2114.000000	86.286362
2113.000000	86.330906
2112.000000	86.326530
2111.000000	86.264365
2110.000000	86.210703
2109.000000	86.177908
2108.000000	86.226680
2107.000000	86.257476
2106.000000	86.201339
2105.000000	86.152182
2104.000000	86.191875
2103.000000	86.222389
2102.000000	86.190264
2101.000000	86.215886
2100.000000	86.187224
2099.000000	86.139512
2098.000000	86.188744
2097.000000	86.222794
2096.000000	86.185927
2095.000000	86.245257
2094.000000	86.237350
2093.000000	86.266643
2092.000000	86.295160
2091.000000	86.173187
2090.000000	86.145236
2089.000000	86.221457
2088.000000	86.235703
2087.000000	86.194903
2086.000000	86.169312
2085.000000	86.217097
2084.000000	86.278337
2083.000000	86.231571
2082.000000	86.197314
2081.000000	86.227226
2080.000000	86.217899
2079.000000	86.131686
2078.000000	86.132077
2077.000000	86.158240
2076.000000	86.227990
2075.000000	86.292297
2074.000000	86.288243
2073.000000	86.275354
2072.000000	86.249283
2071.000000	86.250983
2070.000000	86.181895
2069.000000	86.150324
2068.000000	86.272216
2067.000000	86.210317
2066.000000	86.319887
2065.000000	86.263928
2064.000000	86.217709
2063.000000	86.247852
2062.000000	86.198209
2061.000000	86.199520
2060.000000	86.268906
2059.000000	86.183390
2058.000000	86.201607
2057.000000	86.288813
2056.000000	86.247767
2055.000000	86.142712
2054.000000	86.235038
2053.000000	86.154201
2052.000000	86.173805
2051.000000	86.268835
2050.000000	86.308026
2049.000000	86.284559
2048.000000	86.227218
2047.000000	86.229063
2046.000000	86.294995
2045.000000	86.396729
2044.000000	86.350856
2043.000000	86.305324
2042.000000	86.343640
2041.000000	86.355286
2040.000000	86.356485
2039.000000	86.331569
2038.000000	86.408389
2037.000000	86.368185
2036.000000	86.432302
2035.000000	86.320928
2034.000000	86.402726
2033.000000	86.378783
2032.000000	86.392762
2031.000000	86.267868
2030.000000	86.251625
2029.000000	86.192190
2028.000000	86.223979
2027.000000	86.181555
2026.000000	86.220256
2025.000000	86.257358
2024.000000	86.197172
2023.000000	86.208798
2022.000000	86.179293
2021.000000	86.227925
2020.000000	86.214073
2019.000000	86.177345
2018.000000	86.243052
2017.000000	86.258301
2016.000000	86.231026
2015.000000	86.199672
2014.000000	86.199558
2013.000000	86.198657
2012.000000	86.150437
2011.000000	86.172453
2010.000000	86.195281
2009.000000	86.191140
2008.000000	86.250904
2007.000000	86.185641
2006.000000	86.220747
2005.000000	86.184941
2004.000000	86.251431
2003.000000	86.243909
2002.000000	86.221476
2001.000000	86.182639
2000.000000	86.183735
1999.000000	86.205657
1998.000000	86.201796
1997.000000	86.251373
1996.000000	86.222992
1995.000000	86.207076
1994.000000	86.235967
1993.000000	86.218125
1992.000000	86.209571
1991.000000	86.231183
1990.000000	86.253617
1989.000000	86.251746
1988.000000	86.206694
1987.000000	86.254067
1986.000000	86.241966
1985.000000	86.222979
1984.000000	86.261876
1983.000000	86.268254
1982.000000	86.281983
1981.000000	86.244114
1980.000000	86.221913
1979.000000	86.220385
1978.000000	86.246734
1977.000000	86.266824
1976.000000	86.281324
1975.000000	86.256126
1974.000000	86.279975
1973.000000	86.296504
1972.000000	86.288044
1971.000000	86.246890
1970.000000	86.262269
1969.000000	86.316461
1968.000000	86.261537
1967.000000	86.267918
1966.000000	86.257635
1965.000000	86.264799
1964.000000	86.287282
1963.000000	86.283904
1962.000000	86.288162
1961.000000	86.291690
1960.000000	86.317316
1959.000000	86.238933
1958.000000	86.246786
1957.000000	86.280097
1956.000000	86.310741
1955.000000	86.320542
1954.000000	86.276978
1953.000000	86.291061
1952.000000	86.308948
1951.000000	86.303424
1950.000000	86.334182
1949.000000	86.330328
1948.000000	86.328323
1947.000000	86.327207
1946.000000	86.330536
1945.000000	86.353745
1944.000000	86.353576
1943.000000	86.340230
1942.000000	86.345625
1941.000000	86.321040
1940.000000	86.308354
1939.000000	86.299821
1938.000000	86.358340
1937.000000	86.319120
1936.000000	86.286208
1935.000000	86.287279
1934.000000	86.347804
1933.000000	86.378077
1932.000000	86.336709
1931.000000	86.369563
1930.000000	86.349570
1929.000000	86.332882
1928.000000	86.313455
1927.000000	86.322653
1926.000000	86.370085
1925.000000	86.326899
1924.000000	86.365270
1923.000000	86.402261
1922.000000	86.436352
1921.000000	86.477645
1920.000000	86.486616
1919.000000	86.525030
1918.000000	86.499880
1917.000000	86.511792
1916.000000	86.536893
1915.000000	86.502505
1914.000000	86.535610
1913.000000	86.545622
1912.000000	86.561537
1911.000000	86.510230
1910.000000	86.371748
1909.000000	86.341165
1908.000000	86.418220
1907.000000	86.424888
1906.000000	86.440959
1905.000000	86.429301
1904.000000	86.409111
1903.000000	86.402600
1902.000000	86.362333
1901.000000	86.364910
1900.000000	86.399430
1899.000000	86.386396
1898.000000	86.374331
1897.000000	86.420209
1896.000000	86.391453
1895.000000	86.365376
1894.000000	86.408372
1893.000000	86.420388
1892.000000	86.420717
1891.000000	86.444326
1890.000000	86.450414
1889.000000	86.430951
1888.000000	86.416976
1887.000000	86.404664
1886.000000	86.414603
1885.000000	86.397822
1884.000000	86.420066
1883.000000	86.461758
1882.000000	86.451084
1881.000000	86.447734
1880.000000	86.468111
1879.000000	86.458275
1878.000000	86.451159
1877.000000	86.433879
1876.000000	86.422473
1875.000000	86.440701
1874.000000	86.459716
1873.000000	86.468816
1872.000000	86.448219
1871.000000	86.469661
1870.000000	86.490968
1869.000000	86.431878
1868.000000	86.415710
1867.000000	86.465487
1866.000000	86.479487
1865.000000	86.452500
1864.000000	86.441106
1863.000000	86.430890
1862.000000	86.444684
1861.000000	86.479066
1860.000000	86.467713
1859.000000	86.495470
1858.000000	86.490783
1857.000000	86.490162
1856.000000	86.487255
1855.000000	86.509888
1854.000000	86.507073
1853.000000	86.485666
1852.000000	86.465645
1851.000000	86.463377
1850.000000	86.508130
1849.000000	86.530174
1848.000000	86.506893
1847.000000	86.510280
1846.000000	86.486060
1845.000000	86.505468
1844.000000	86.492935
1843.000000	86.521214
1842.000000	86.493765
1841.000000	86.531014
1840.000000	86.526374
1839.000000	86.538371
1838.000000	86.524409
1837.000000	86.518433
1836.000000	86.533878
1835.000000	86.506336
1834.000000	86.506819
1833.000000	86.615218
1832.000000	86.615090
1831.000000	86.620277
1830.000000	86.520365
1829.000000	86.621627
1828.000000	86.628547
1827.000000	86.642285
1826.000000	86.668013
1825.000000	86.644350
1824.000000	86.652938
1823.000000	86.583651
1822.000000	86.544296
1821.000000	86.549415
1820.000000	86.548244
1819.000000	86.535425
1818.000000	86.550932
1817.000000	86.541487
1816.000000	86.560883
1815.000000	86.559668
1814.000000	86.568214
1813.000000	86.563710
1812.000000	86.573402
1811.000000	86.573932
1810.000000	86.570013
1809.000000	86.568055
1808.000000	86.584204
1807.000000	86.587228
1806.000000	86.611996
1805.000000	86.593994
1804.000000	86.622297
1803.000000	86.622508
1802.000000	86.602400
1801.000000	86.610862
1800.000000	86.614031
1799.000000	86.626284
1798.000000	86.618982
1797.000000	86.619427
1796.000000	86.637022
1795.000000	86.622925
1794.000000	86.633381
1793.000000	86.637054
1792.000000	86.639794
1791.000000	86.660501
1790.000000	86.657871
1789.000000	86.640285
1788.000000	86.638570
1787.000000	86.663212
1786.000000	86.645348
1785.000000	86.668458
1784.000000	86.684837
1783.000000	86.679084
1782.000000	86.648942
1781.000000	86.671478
1780.000000	86.673301
1779.000000	86.681562
1778.000000	86.704942
1777.000000	86.679796
1776.000000	86.689546
1775.000000	86.699634
1774.000000	86.696653
1773.000000	86.683699
1772.000000	86.715550
1771.000000	86.730088
1770.000000	86.705452
1769.000000	86.714172
1768.000000	86.695383
1767.000000	86.701196
1766.000000	86.698160
1765.000000	86.718143
1764.000000	86.698390
1763.000000	86.745505
1762.000000	86.722844
1761.000000	86.720715
1760.000000	86.732128
1759.000000	86.734081
1758.000000	86.716771
1757.000000	86.723139
1756.000000	86.749220
1755.000000	86.728985
1754.000000	86.721694
1753.000000	86.751012
1752.000000	86.754180
1751.000000	86.743803
1750.000000	86.747235
1749.000000	86.758146
1748.000000	86.767635
1747.000000	86.773431
1746.000000	86.741268
1745.000000	86.764503
1744.000000	86.764820
1743.000000	86.764544
1742.000000	86.760524
1741.000000	86.765206
1740.000000	86.767437
1739.000000	86.760596
1738.000000	86.777849
1737.000000	86.765862
1736.000000	86.759344
1735.000000	86.784078
1734.000000	86.783258
1733.000000	86.771908
1732.000000	86.785833
1731.000000	86.804446
1730.000000	86.796856
1729.000000	86.784683
1728.000000	86.805585
1727.000000	86.799828
1726.000000	86.793646
1725.000000	86.788541
1724.000000	86.801823
1723.000000	86.794795
1722.000000	86.796714
1721.000000	86.805657
1720.000000	86.780681
1719.000000	86.804792
1718.000000	86.805808
1717.000000	86.783385
1716.000000	86.801172
1715.000000	86.798993
1714.000000	86.812487
1713.000000	86.807714
1712.000000	86.809276
1711.000000	86.815412
1710.000000	86.827624
1709.000000	86.801698
1708.000000	86.806478
1707.000000	86.803732
1706.000000	86.807936
1705.000000	86.813564
1704.000000	86.802888
1703.000000	86.822980
1702.000000	86.817264
1701.000000	86.815801
1700.000000	86.811675
1699.000000	86.798007
1698.000000	86.802287
1697.000000	86.804011
1696.000000	86.826900
1695.000000	86.813559
1694.000000	86.805373
1693.000000	86.813034
1692.000000	86.802910
1691.000000	86.795361
1690.000000	86.806933
1689.000000	86.808961
1688.000000	86.797984
1687.000000	86.807460
1686.000000	86.802299
1685.000000	86.802081
1684.000000	86.804617
1683.000000	86.812849
1682.000000	86.811230
1681.000000	86.810451
1680.000000	86.798945
1679.000000	86.788142
1678.000000	86.793233
1677.000000	86.800593
1676.000000	86.798763
1675.000000	86.801195
1674.000000	86.778085
1673.000000	86.771272
1672.000000	86.768683
1671.000000	86.774128
1670.000000	86.785919
1669.000000	86.778699
1668.000000	86.721796
1667.000000	86.727597
1666.000000	86.776222
1665.000000	86.836906
1664.000000	86.827453
1663.000000	86.840905
1662.000000	86.839690
1661.000000	86.825779
1660.000000	86.840159
1659.000000	86.834064
1658.000000	86.817006
1657.000000	86.818264
1656.000000	86.823830
1655.000000	86.829444
1654.000000	86.868230
1653.000000	86.880592
1652.000000	86.865032
1651.000000	86.876798
1650.000000	86.869758
1649.000000	86.854781
1648.000000	86.863527
1647.000000	86.855151
1646.000000	86.853847
1645.000000	86.845834
1644.000000	86.839331
1643.000000	86.838067
1642.000000	86.831690
1641.000000	86.826761
1640.000000	86.827903
1639.000000	86.823272
1638.000000	86.775488
1637.000000	86.737682
1636.000000	86.724076
1635.000000	86.723216
1634.000000	86.739592
1633.000000	86.736273
1632.000000	86.722088
1631.000000	86.711190
1630.000000	86.707292
1629.000000	86.714915
1628.000000	86.721245
1627.000000	86.707272
1626.000000	86.687848
1625.000000	86.684212
1624.000000	86.676883
1623.000000	86.684383
1622.000000	86.676915
1621.000000	86.657658
1620.000000	86.658693
1619.000000	86.653026
1618.000000	86.647883
1617.000000	86.627745
1616.000000	86.634192
1615.000000	86.633631
1614.000000	86.579995
1613.000000	86.554120
1612.000000	86.546594
1611.000000	86.542783
1610.000000	86.538345
1609.000000	86.536046
1608.000000	86.531087
1607.000000	86.520776
1606.000000	86.509578
1605.000000	86.509276
1604.000000	86.509813
1603.000000	86.497957
1602.000000	86.502618
1601.000000	86.486634
1600.000000	86.470668
1599.000000	86.466678
1598.000000	86.456869
1597.000000	86.450084
1596.000000	86.449376
1595.000000	86.449409
1594.000000	86.445224
1593.000000	86.422748
1592.000000	86.406049
1591.000000	86.415048
1590.000000	86.397550
1589.000000	86.392749
1588.000000	86.382910
1587.000000	86.373090
1586.000000	86.368348
1585.000000	86.359887
1584.000000	86.350004
1583.000000	86.354182
1582.000000	86.345394
1581.000000	86.329930
1580.000000	86.333177
1579.000000	86.341427
1578.000000	86.321354
1577.000000	86.297290
1576.000000	86.284427
1575.000000	86.292309
1574.000000	86.286567
1573.000000	86.277100
1572.000000	86.257094
1571.000000	86.254787
1570.000000	86.248336
1569.000000	86.251783
1568.000000	86.228057
1567.000000	86.229255
1566.000000	86.216132
1565.000000	86.194009
1564.000000	86.177295
1563.000000	86.172892
1562.000000	86.166607
1561.000000	86.158269
1560.000000	86.150500
1559.000000	86.133607
1558.000000	86.120599
1557.000000	86.124154
1556.000000	86.108704
1555.000000	86.100484
1554.000000	86.090063
1553.000000	86.070021
1552.000000	86.060097
1551.000000	86.048741
1550.000000	86.045803
1549.000000	86.024748
1548.000000	86.023500
1547.000000	86.009298
1546.000000	86.008565
1545.000000	85.985244
1544.000000	85.985871
1543.000000	85.991676
1542.000000	85.955688
1541.000000	85.949172
1540.000000	85.932559
1539.000000	85.925205
1538.000000	85.898243
1537.000000	85.910202
1536.000000	85.883604
1535.000000	85.882099
1534.000000	85.873028
1533.000000	85.863056
1532.000000	85.841448
1531.000000	85.835138
1530.000000	85.813807
1529.000000	85.800821
1528.000000	85.780743
1527.000000	85.777887
1526.000000	85.768853
1525.000000	85.766734
1524.000000	85.746748
1523.000000	85.735111
1522.000000	85.716296
1521.000000	85.704126
1520.000000	85.691477
1519.000000	85.677408
1518.000000	85.655138
1517.000000	85.642257
1516.000000	85.635626
1515.000000	85.627827
1514.000000	85.608957
1513.000000	85.594597
1512.000000	85.597167
1511.000000	85.563163
1510.000000	85.562829
1509.000000	85.545094
1508.000000	85.532763
1507.000000	85.516128
1506.000000	85.500839
1505.000000	85.489488
1504.000000	85.473423
1503.000000	85.462322
1502.000000	85.437276
1501.000000	85.427928
1500.000000	85.413396
1499.000000	85.401022
1498.000000	85.390890
1497.000000	85.380369
1496.000000	85.364370
1495.000000	85.341469
1494.000000	85.328725
1493.000000	85.322969
1492.000000	85.303752
1491.000000	85.297275
1490.000000	85.284560
1489.000000	85.268004
1488.000000	85.242590
1487.000000	85.232783
1486.000000	85.221611
1485.000000	85.198868
1484.000000	85.181959
1483.000000	85.175466
1482.000000	85.167694
1481.000000	85.138912
1480.000000	85.109353
1479.000000	85.098197
1478.000000	85.083485
1477.000000	85.063497
1476.000000	85.062572
1475.000000	85.043587
1474.000000	85.023125
1473.000000	85.008565
1472.000000	84.993657
1471.000000	84.976879
1470.000000	84.962039
1469.000000	84.941837
1468.000000	84.921024
1467.000000	84.924917
1466.000000	84.893818
1465.000000	84.881214
1464.000000	84.866273
1463.000000	84.847766
1462.000000	84.832926
1461.000000	84.815208
1460.000000	84.792813
1459.000000	84.776751
1458.000000	84.762455
1457.000000	84.746597
1456.000000	84.730593
1455.000000	84.713506
1454.000000	84.692290
1453.000000	84.680927
1452.000000	84.658044
1451.000000	84.649902
1450.000000	84.626549
1449.000000	84.597982
1448.000000	84.585614
1447.000000	84.559876
1446.000000	84.544216
1445.000000	84.530698
1444.000000	84.514457
1443.000000	84.501053
1442.000000	84.468892
1441.000000	84.447997
1440.000000	84.432306
1439.000000	84.417841
1438.000000	84.400458
1437.000000	84.375489
1436.000000	84.359579
1435.000000	84.342970
1434.000000	84.316587
1433.000000	84.295276
1432.000000	84.274337
1431.000000	84.267808
1430.000000	84.250873
1429.000000	84.233746
1428.000000	84.207046
1427.000000	84.194099
1426.000000	84.174837
1425.000000	84.150095
1424.000000	84.131546
1423.000000	84.119131
1422.000000	84.103047
1421.000000	84.083016
1420.000000	84.068567
1419.000000	84.050204
1418.000000	84.032053
1417.000000	84.021992
1416.000000	84.003103
1415.000000	83.989159
1414.000000	83.975914
1413.000000	83.964966
1412.000000	83.956622
1411.000000	83.947362
1410.000000	83.934096
1409.000000	83.915124
1408.000000	83.899795
1407.000000	83.894303
1406.000000	83.879496
1405.000000	83.870615
1404.000000	83.866705
1403.000000	83.854519
1402.000000	83.839694
1401.000000	83.842391
1400.000000	83.834262
1399.000000	83.812583
1398.000000	83.807410
1397.000000	83.798143
1396.000000	83.793643
1395.000000	83.787211
1394.000000	83.777656
1393.000000	83.774338
1392.000000	83.773934
1391.000000	83.768888
1390.000000	83.763521
1389.000000	83.756612
1388.000000	83.745542
1387.000000	83.733067
1386.000000	83.724569
1385.000000	83.718821
1384.000000	83.709479
1383.000000	83.693990
1382.000000	83.677742
1381.000000	83.668798
1380.000000	83.666446
1379.000000	83.655326
1378.000000	83.636718
1377.000000	83.623677
1376.000000	83.616718
1375.000000	83.602875
1374.000000	83.590543
1373.000000	83.577601
1372.000000	83.566812
1371.000000	83.559339
1370.000000	83.542293
1369.000000	83.525210
1368.000000	83.515152
1367.000000	83.501399
1366.000000	83.480543
1365.000000	83.456310
1364.000000	83.439484
1363.000000	83.427981
1362.000000	83.416362
1361.000000	83.401370
1360.000000	83.374340
1359.000000	83.357948
1358.000000	83.345492
1357.000000	83.324134
1356.000000	83.307441
1355.000000	83.299880
1354.000000	83.285092
1353.000000	83.273964
1352.000000	83.267455
1351.000000	83.247316
1350.000000	83.238041
1349.000000	83.228816
1348.000000	83.211980
1347.000000	83.202559
1346.000000	83.193434
1345.000000	83.184480
1344.000000	83.175350
1343.000000	83.152958
1342.000000	83.144649
1341.000000	83.130369
1340.000000	83.123444
1339.000000	83.118300
1338.000000	83.122887
1337.000000	83.118722
1336.000000	83.113330
1335.000000	83.092322
1334.000000	83.071171
1333.000000	83.054255
1332.000000	83.044039
1331.000000	83.032227
1330.000000	83.018422
1329.000000	83.012362
1328.000000	82.995634
1327.000000	82.974913
1326.000000	82.961618
1325.000000	82.957169
1324.000000	82.951775
1323.000000	82.932163
1322.000000	82.919589
1321.000000	82.906569
1320.000000	82.888573
1319.000000	82.887777
1318.000000	82.867992
1317.000000	82.858252
1316.000000	82.839085
1315.000000	82.828420
1314.000000	82.826272
1313.000000	82.805438
1312.000000	82.790298
1311.000000	82.782969
1310.000000	82.771684
1309.000000	82.755271
1308.000000	82.734313
1307.000000	82.727188
1306.000000	82.720330
1305.000000	82.709996
1304.000000	82.691684
1303.000000	82.686557
1302.000000	82.672339
1301.000000	82.653978
1300.000000	82.651126
1299.000000	82.635394
1298.000000	82.638697
1297.000000	82.616617
1296.000000	82.599481
1295.000000	82.597190
1294.000000	82.593426
1293.000000	82.583150
1292.000000	82.575805
1291.000000	82.544002
1290.000000	82.551896
1289.000000	82.530640
1288.000000	82.523681
1287.000000	82.505180
1286.000000	82.489466
1285.000000	82.486627
1284.000000	82.483708
1283.000000	82.470397
1282.000000	82.450414
1281.000000	82.446251
1280.000000	82.430987
1279.000000	82.435380
1278.000000	82.409065
1277.000000	82.411033
1276.000000	82.392766
1275.000000	82.382034
1274.000000	82.366802
1273.000000	82.365482
1272.000000	82.355871
1271.000000	82.338869
1270.000000	82.333538
1269.000000	82.311933
1268.000000	82.308724
1267.000000	82.295719
1266.000000	82.291020
1265.000000	82.272150
1264.000000	82.267983
1263.000000	82.253533
1262.000000	82.249390
1261.000000	82.237703
1260.000000	82.229977
1259.000000	82.218243
1258.000000	82.203750
1257.000000	82.185631
1256.000000	82.184552
1255.000000	82.178812
1254.000000	82.168294
1253.000000	82.162063
1252.000000	82.153268
1251.000000	82.137286
1250.000000	82.137696
1249.000000	82.130301
1248.000000	82.115710
1247.000000	82.105299
1246.000000	82.098406
1245.000000	82.094949
1244.000000	82.092265
1243.000000	82.079416
1242.000000	82.069365
1241.000000	82.055626
1240.000000	82.056850
1239.000000	82.044391
1238.000000	82.040778
1237.000000	82.036954
1236.000000	82.025574
1235.000000	82.020983
1234.000000	82.006493
1233.000000	82.000059
1232.000000	81.994925
1231.000000	81.985232
1230.000000	81.979828
1229.000000	81.980195
1228.000000	81.969979
1227.000000	81.961636
1226.000000	81.946619
1225.000000	81.933728
1224.000000	81.938623
1223.000000	81.927172
1222.000000	81.917053
1221.000000	81.919719
1220.000000	81.910365
1219.000000	81.908665
1218.000000	81.895083
1217.000000	81.894088
1216.000000	81.875727
1215.000000	81.860645
1214.000000	81.862412
1213.000000	81.856604
1212.000000	81.846979
1211.000000	81.841360
1210.000000	81.839016
1209.000000	81.835338
1208.000000	81.830230
1207.000000	81.817131
1206.000000	81.807393
1205.000000	81.801418
1204.000000	81.795676
1203.000000	81.795575
1202.000000	81.794102
1201.000000	81.783017
1200.000000	81.777330
1199.000000	81.769035
1198.000000	81.765189
1197.000000	81.761396
1196.000000	81.756436
1195.000000	81.748548
1194.000000	81.747300
1193.000000	81.736914
1192.000000	81.735009
1191.000000	81.733902
1190.000000	81.723509
1189.000000	81.715129
1188.000000	81.714878
1187.000000	81.704826
1186.000000	81.695751
1185.000000	81.690591
1184.000000	81.693505
1183.000000	81.689218
1182.000000	81.678599
1181.000000	81.668862
1180.000000	81.664408
1179.000000	81.659623
1178.000000	81.652119
1177.000000	81.647878
1176.000000	81.643378
1175.000000	81.640814
1174.000000	81.639402
1173.000000	81.633060
1172.000000	81.631577
1171.000000	81.621600
1170.000000	81.614057
1169.000000	81.620381
1168.000000	81.614073
1167.000000	81.610543
1166.000000	81.611925
1165.000000	81.595035
1164.000000	81.585835
1163.000000	81.587285
1162.000000	81.583098
1161.000000	81.579966
1160.000000	81.571857
1159.000000	81.569154
1158.000000	81.565867
1157.000000	81.557879
1156.000000	81.554640
1155.000000	81.552544
1154.000000	81.553184
1153.000000	81.546939
1152.000000	81.541206
1151.000000	81.541233
1150.000000	81.537649
1149.000000	81.536329
1148.000000	81.532970
1147.000000	81.525396
1146.000000	81.520537
1145.000000	81.516911
1144.000000	81.518606
1143.000000	81.521564
1142.000000	81.513107
1141.000000	81.502248
1140.000000	81.498292
1139.000000	81.495554
1138.000000	81.494726
1137.000000	81.495544
1136.000000	81.492994
1135.000000	81.487159
1134.000000	81.480666
1133.000000	81.474380
1132.000000	81.473823
1131.000000	81.477740
1130.000000	81.476869
1129.000000	81.478180
1128.000000	81.469466
1127.000000	81.462280
1126.000000	81.462943
1125.000000	81.459715
1124.000000	81.449525
1123.000000	81.454401
1122.000000	81.449315
1121.000000	81.450103
1120.000000	81.447362
1119.000000	81.440209
1118.000000	81.442940
1117.000000	81.441745
1116.000000	81.441986
1115.000000	81.437774
1114.000000	81.430125
1113.000000	81.432186
1112.000000	81.434112
1111.000000	81.428848
1110.000000	81.427363
1109.000000	81.430583
1108.000000	81.430677
1107.000000	81.430694
1106.000000	81.421504
1105.000000	81.415149
1104.000000	81.420740
1103.000000	81.420537
1102.000000	81.419670
1101.000000	81.426876
1100.000000	81.423037
1099.000000	81.423367
1098.000000	81.411239
1097.000000	81.410151
1096.000000	81.406665
1095.000000	81.413966
1094.000000	81.414693
1093.000000	81.410653
1092.000000	81.412834
1091.000000	81.411237
1090.000000	81.407348
1089.000000	81.409151
1088.000000	81.397841
1087.000000	81.401040
1086.000000	81.409964
1085.000000	81.412084
1084.000000	81.406847
1083.000000	81.401324
1082.000000	81.408291
1081.000000	81.412911
1080.000000	81.409762
1079.000000	81.404558
1078.000000	81.406730
1077.000000	81.390269
1076.000000	81.389571
1075.000000	81.398945
1074.000000	81.397053
1073.000000	81.402799
1072.000000	81.409625
1071.000000	81.400676
1070.000000	81.386071
1069.000000	81.405479
1068.000000	81.401960
1067.000000	81.395271
1066.000000	81.389921
1065.000000	81.407893
1064.000000	81.403450
1063.000000	81.420666
1062.000000	81.417358
1061.000000	81.412363
1060.000000	81.404599
1059.000000	81.408891
1058.000000	81.405869
1057.000000	81.404603
1056.000000	81.405618
1055.000000	81.415485
1054.000000	81.397105
1053.000000	81.422289
1052.000000	81.422632
1051.000000	81.419724
1050.000000	81.427327
1049.000000	81.422167
1048.000000	81.423183
1047.000000	81.426466
1046.000000	81.423750
1045.000000	81.436768
1044.000000	81.425933
1043.000000	81.435081
1042.000000	81.433468
1041.000000	81.437838
1040.000000	81.439326
1039.000000	81.437483
1038.000000	81.445592
1037.000000	81.451561
1036.000000	81.440653
1035.000000	81.458436
1034.000000	81.451763
1033.000000	81.447947
1032.000000	81.462203
1031.000000	81.445287
1030.000000	81.454324
1029.000000	81.462576
1028.000000	81.459616
1027.000000	81.473298
1026.000000	81.468758
1025.000000	81.461003
1024.000000	81.476485
1023.000000	81.477880
1022.000000	81.477659
1021.000000	81.481875
1020.000000	81.498345
1019.000000	81.489658
1018.000000	81.507277
1017.000000	81.484072
1016.000000	81.501459
1015.000000	81.515642
1014.000000	81.517372
1013.000000	81.512708
1012.000000	81.518686
1011.000000	81.521624
1010.000000	81.534357
1009.000000	81.528257
1008.000000	81.522831
1007.000000	81.527711
1006.000000	81.552520
1005.000000	81.548191
1004.000000	81.558323
1003.000000	81.543645
1002.000000	81.552843
1001.000000	81.552276
1000.000000	81.561617
999.000000	81.563625
998.000000	81.562176
997.000000	81.563776
996.000000	81.578581
995.000000	81.586806
994.000000	81.607870
993.000000	81.658585
992.000000	81.672803
991.000000	81.665215
990.000000	81.673607
989.000000	81.697989
988.000000	81.694055
987.000000	81.702678
986.000000	81.699679
985.000000	81.712586
984.000000	81.722348
983.000000	81.729993
982.000000	81.801667
981.000000	81.814554
980.000000	81.825402
979.000000	81.825555
978.000000	81.805305
977.000000	81.847025
976.000000	81.843267
975.000000	81.860541
974.000000	81.874138
973.000000	81.882651
972.000000	81.862298
971.000000	81.781200
970.000000	81.875773
969.000000	81.824398
968.000000	81.846381
967.000000	81.855287
966.000000	81.847710
965.000000	81.858295
964.000000	81.866811
963.000000	81.857792
962.000000	81.834034
961.000000	81.839817
960.000000	81.838214
959.000000	81.853041
958.000000	81.863009
957.000000	81.875421
956.000000	81.882688
955.000000	81.912034
954.000000	81.898616
953.000000	81.901435
952.000000	81.912142
951.000000	81.919314
950.000000	81.926998
949.000000	81.935675
948.000000	81.938683
947.000000	81.979610
946.000000	81.990481
945.000000	81.973525
944.000000	82.007120
943.000000	82.015309
942.000000	82.041000
941.000000	82.021751
940.000000	82.022767
939.000000	82.015138
938.000000	82.060855
937.000000	82.085913
936.000000	82.061419
935.000000	82.082107
934.000000	82.099006
933.000000	82.074123
932.000000	82.128031
931.000000	82.229019
930.000000	82.244794
929.000000	82.247018
928.000000	82.276826
927.000000	82.275129
926.000000	82.288971
925.000000	82.319038
924.000000	82.335831
923.000000	82.319886
922.000000	82.329687
921.000000	82.347330
920.000000	82.354448
919.000000	82.342392
918.000000	82.305220
917.000000	82.298505
916.000000	82.328657
915.000000	82.348160
914.000000	82.333039
913.000000	82.354355
912.000000	82.382143
911.000000	82.401303
910.000000	82.395138
909.000000	82.384756
908.000000	82.402679
907.000000	82.416942
906.000000	82.422393
905.000000	82.438628
904.000000	82.508460
903.000000	82.493441
902.000000	82.478672
901.000000	82.499401
900.000000	82.537628
899.000000	82.553492
898.000000	82.572584
897.000000	82.557875
896.000000	82.555729
895.000000	82.606357
894.000000	82.607578
893.000000	82.682675
892.000000	82.798949
891.000000	82.831002
890.000000	82.813581
889.000000	82.788698
888.000000	82.857197
887.000000	82.864066
886.000000	82.910973
885.000000	82.920240
884.000000	82.903690
883.000000	82.891468
882.000000	82.838957
881.000000	82.803675
880.000000	82.845266
879.000000	82.862872
878.000000	82.860230
877.000000	82.870987
876.000000	82.911485
875.000000	82.957542
874.000000	82.975193
873.000000	82.982417
872.000000	83.003090
871.000000	83.018335
870.000000	83.024353
869.000000	83.083236
868.000000	83.046900
867.000000	83.028950
866.000000	83.106763
865.000000	83.229948
864.000000	83.196302
863.000000	83.189896
862.000000	83.160002
861.000000	83.202538
860.000000	83.065113
859.000000	83.288022
858.000000	83.273903
857.000000	83.152824
856.000000	83.140912
855.000000	83.022457
854.000000	83.237754
853.000000	83.273000
852.000000	83.141036
851.000000	83.277513
850.000000	83.365841
849.000000	83.370000
848.000000	83.332306
847.000000	83.204525
846.000000	83.128047
845.000000	83.474315
844.000000	83.415188
843.000000	83.427911
842.000000	83.449372
841.000000	83.502875
840.000000	83.529106
839.000000	83.478509
838.000000	83.461713
837.000000	83.681438
836.000000	83.585123
835.000000	83.581861
834.000000	83.620994
833.000000	83.782404
832.000000	83.735776
831.000000	83.779675
830.000000	83.834238
829.000000	83.729619
828.000000	83.782444
827.000000	83.789313
826.000000	83.840355
825.000000	83.724140
824.000000	83.858670
823.000000	83.916730
822.000000	83.875279
821.000000	83.893959
820.000000	83.993193
819.000000	83.981013
818.000000	84.014451
817.000000	84.070186
816.000000	83.987893
815.000000	84.067051
814.000000	84.078568
813.000000	84.101187
812.000000	84.158599
811.000000	84.148557
810.000000	84.238084
809.000000	84.276097
808.000000	84.272366
807.000000	84.306345
806.000000	84.309583
805.000000	84.394447
804.000000	84.372554
803.000000	84.420308
802.000000	84.437057
801.000000	84.448664
800.000000	84.453293
799.000000	84.527943
798.000000	84.620355
797.000000	84.603956
796.000000	84.682515
795.000000	84.736345
794.000000	84.689976
793.000000	84.767522
792.000000	84.723999
791.000000	84.775618
790.000000	84.759451
789.000000	84.824279
788.000000	84.822823
787.000000	84.881232
786.000000	84.951255
785.000000	84.960538
784.000000	84.839055
783.000000	84.999727
782.000000	85.020599
781.000000	85.089217
780.000000	85.120153
779.000000	85.207744
778.000000	85.226976
777.000000	85.229908
776.000000	85.261422
775.000000	85.259927
774.000000	85.313365
773.000000	85.313805
772.000000	85.320947
771.000000	85.413926
770.000000	85.372535
769.000000	85.446910
768.000000	85.504395
767.000000	85.550936
766.000000	85.613879
765.000000	85.646705
764.000000	85.665934
763.000000	85.713669
762.000000	85.693115
761.000000	85.676619
760.000000	85.798781
759.000000	85.709681
758.000000	85.812960
757.000000	85.870039
756.000000	85.905070
755.000000	85.934443
754.000000	86.017986
753.000000	85.990458
752.000000	86.075829
751.000000	86.034152
750.000000	86.112168
749.000000	86.115846
748.000000	86.096143
747.000000	86.226140
746.000000	86.239529
745.000000	86.232304
744.000000	86.312710
743.000000	86.341451
742.000000	86.378784
741.000000	86.410801
740.000000	86.413867
739.000000	86.421535
738.000000	86.493848
737.000000	86.524006
736.000000	86.601134
735.000000	86.584788
734.000000	86.601934
733.000000	86.609424
732.000000	86.711841
731.000000	86.693619
730.000000	86.758007
729.000000	86.786588
728.000000	86.818678
727.000000	86.830453
726.000000	86.875786
725.000000	86.901064
724.000000	86.959323
723.000000	86.999801
722.000000	87.002715
721.000000	87.058786
720.000000	87.054091
719.000000	87.084744
718.000000	87.140581
717.000000	87.174756
716.000000	87.216800
715.000000	87.242936
714.000000	87.277386
713.000000	87.253133
712.000000	87.328728
711.000000	87.338416
710.000000	87.379235
709.000000	87.401000
708.000000	87.382040
707.000000	87.426100
706.000000	87.512753
705.000000	87.520307
704.000000	87.572086
703.000000	87.578893
702.000000	87.601457
701.000000	87.628247
700.000000	87.667084
699.000000	87.690328
698.000000	87.751899
697.000000	87.742937
696.000000	87.800137
695.000000	87.843073
694.000000	87.851790
693.000000	87.875568
692.000000	87.936381
691.000000	87.961364
690.000000	87.984029
689.000000	88.044610
688.000000	88.079727
687.000000	88.111677
686.000000	88.093871
685.000000	88.137272
684.000000	88.189116
683.000000	88.207873
682.000000	88.230524
681.000000	88.279096
680.000000	88.303746
679.000000	88.337782
678.000000	88.383439
677.000000	88.373537
676.000000	88.405243
675.000000	88.441684
674.000000	88.454510
673.000000	88.489298
672.000000	88.522514
671.000000	88.537440
670.000000	88.526722
669.000000	88.569001
668.000000	88.621891
667.000000	88.643389
666.000000	88.648759
665.000000	88.687105
664.000000	88.704153
663.000000	88.723096
662.000000	88.752437
661.000000	88.770044
660.000000	88.785750
659.000000	88.840364
658.000000	88.864275
657.000000	88.869254
656.000000	88.894797
655.000000	88.907555
654.000000	88.932221
653.000000	88.983125
652.000000	89.023659
651.000000	89.037912
650.000000	89.050835
649.000000	89.064411
648.000000	89.104749
647.000000	89.135528
646.000000	89.159682
645.000000	89.188833
644.000000	89.206561
643.000000	89.222072
642.000000	89.241817
641.000000	89.268278
640.000000	89.277525
639.000000	89.306437
638.000000	89.344743
637.000000	89.359803
636.000000	89.370209
635.000000	89.392724
634.000000	89.424803
633.000000	89.442860
632.000000	89.476851
631.000000	89.503826
630.000000	89.518051
629.000000	89.534948
628.000000	89.578689
627.000000	89.586072
626.000000	89.618071
625.000000	89.657100
624.000000	89.668410
623.000000	89.690618
622.000000	89.725858
621.000000	89.753243
620.000000	89.761985
619.000000	89.790844
618.000000	89.822092
617.000000	89.849775
616.000000	89.878847
615.000000	89.888239
614.000000	89.886564
613.000000	89.912217
612.000000	89.964012
611.000000	89.970068
610.000000	89.956569
609.000000	90.008829
608.000000	90.030973
607.000000	90.029474
606.000000	90.089128
605.000000	90.045738
604.000000	90.095272
603.000000	90.141933
602.000000	90.153156
601.000000	90.205733
600.000000	90.225690
599.000000	90.221130
598.000000	90.227292
597.000000	90.241279
596.000000	90.255950
595.000000	90.249282
594.000000	90.271632
593.000000	90.318379
592.000000	90.327386
591.000000	90.354081
590.000000	90.341009
589.000000	90.428074
588.000000	90.402131
587.000000	90.375108
586.000000	90.411783
585.000000	90.400462
584.000000	90.493667
583.000000	90.487237
582.000000	90.487571
581.000000	90.540620
580.000000	90.558519
579.000000	90.542725
578.000000	90.610362
577.000000	90.544215
576.000000	90.572272
575.000000	90.603720
574.000000	90.604318
573.000000	90.635927
572.000000	90.658261
571.000000	90.699937
570.000000	90.730370
569.000000	90.718230
568.000000	90.789049
567.000000	90.734758
566.000000	90.748429
565.000000	90.735119
564.000000	90.810054
563.000000	90.796906
562.000000	90.818875
561.000000	90.820916
560.000000	90.811883
559.000000	90.848448
558.000000	90.864170
557.000000	90.808807
556.000000	90.881276
555.000000	90.856226
554.000000	90.923451
553.000000	90.906957
552.000000	90.874571
551.000000	90.857579
550.000000	90.932145
549.000000	90.952709
548.000000	90.900238
547.000000	90.952539
546.000000	90.997934
545.000000	90.975902
544.000000	90.948471
543.000000	90.962369
542.000000	91.005355
541.000000	90.999300
540.000000	91.009056
539.000000	91.004724
538.000000	90.980555
537.000000	90.945156
536.000000	90.992156
535.000000	91.010547
534.000000	90.980620
533.000000	91.038581
532.000000	90.934563
531.000000	90.976430
530.000000	90.999545
529.000000	91.061051
528.000000	91.039526
527.000000	91.026137
526.000000	91.072041
525.000000	91.053583
524.000000	91.064590
523.000000	91.083112
522.000000	91.072876
521.000000	91.097399
520.000000	91.050754
519.000000	91.106206
518.000000	91.089188
517.000000	91.054146
516.000000	91.065128
515.000000	91.084475
514.000000	91.051783
513.000000	91.084147
512.000000	91.081565
511.000000	91.123388
510.000000	91.090078
509.000000	91.080206
508.000000	91.061911
507.000000	91.060378
506.000000	91.075118
505.000000	91.103391
504.000000	91.055763
503.000000	91.067792
502.000000	91.069315
501.000000	91.071191
500.000000	91.039766
499.000000	91.075437
498.000000	91.042736
497.000000	91.033666
496.000000	91.043958
495.000000	91.043603
494.000000	91.032120
493.000000	91.034768
492.000000	91.036947
491.000000	90.984524
490.000000	91.000303
489.000000	90.996766
488.000000	90.990863
487.000000	91.031760
486.000000	90.981181
485.000000	90.988570
484.000000	90.955859
483.000000	90.950205
482.000000	90.956868
481.000000	90.939208
480.000000	90.948724
479.000000	90.931155
478.000000	90.982564
477.000000	90.912081
476.000000	90.860003
475.000000	90.931362
474.000000	90.911802
473.000000	90.872063
472.000000	90.814420
471.000000	90.841380
470.000000	90.852559
469.000000	90.833418
468.000000	90.836927
467.000000	90.819801
466.000000	90.779999
465.000000	90.775564
464.000000	90.776560
463.000000	90.754479
462.000000	90.725904
461.000000	90.746647
460.000000	90.718122
459.000000	90.693264
458.000000	90.677432
457.000000	90.658198
456.000000	90.628940
455.000000	90.601689
454.000000	90.577304
453.000000	90.557500
452.000000	90.519547
451.000000	90.489798
450.000000	90.442825
449.000000	90.411213
448.000000	90.396076
447.000000	90.385831
446.000000	90.325043
445.000000	90.301216
444.000000	90.286933
443.000000	90.273772
442.000000	90.265295
441.000000	90.256589
440.000000	90.233233
439.000000	90.220999
438.000000	90.212231
437.000000	90.227830
436.000000	90.201192
435.000000	90.226786
434.000000	90.246466
433.000000	90.243176
432.000000	90.237123
431.000000	90.230936
430.000000	90.250571
429.000000	90.254814
428.000000	90.245087
427.000000	90.245207
426.000000	90.234559
425.000000	90.250277
424.000000	90.227728
423.000000	90.219033
422.000000	90.224105
421.000000	90.228412
420.000000	90.219592
419.000000	90.209109
418.000000	90.222914
417.000000	90.230873
416.000000	90.228967
415.000000	90.223173
414.000000	90.240503
413.000000	90.262619
412.000000	90.269047
411.000000	90.297708
410.000000	90.313393
409.000000	90.340328
408.000000	90.368779
407.000000	90.347808
406.000000	90.370653
405.000000	90.383486
404.000000	90.399191
403.000000	90.407090
402.000000	90.381951
401.000000	90.353024
400.000000	90.319536
399.000000	90.290298
398.000000	90.248305
397.000000	90.188604
396.000000	90.135230
395.000000	90.047590
394.000000	89.958927
393.000000	89.839567
392.000000	89.668596
391.000000	89.518362
390.000000	89.370512
389.000000	89.180621
388.000000	88.977154
387.000000	88.772367
386.000000	88.565386
385.000000	88.316887
384.000000	88.094489
383.000000	87.901900
382.000000	87.707895
381.000000	87.583613
380.000000	87.584768
379.000000	87.613883
378.000000	87.688227
377.000000	87.847846
376.000000	88.122138
375.000000	88.261005
374.000000	88.328222
373.000000	88.496055
372.000000	88.533774
371.000000	88.550043
370.000000	88.595426
369.000000	88.557390
368.000000	88.484706
367.000000	88.338950
366.000000	88.186928
365.000000	88.004556
364.000000	87.906230
363.000000	87.607891
362.000000	87.303392
361.000000	86.991027
360.000000	86.672880
359.000000	86.290404
358.000000	85.872365
357.000000	85.406471
356.000000	84.967810
355.000000	84.506287
354.000000	83.927553
353.000000	83.247091
352.000000	82.674316
351.000000	81.854662
350.000000	81.024246
349.000000	80.124343
348.000000	79.258342
347.000000	78.256856
346.000000	77.143349
345.000000	75.910598
344.000000	74.553536
343.000000	73.180796
342.000000	71.770930
341.000000	70.195678
340.000000	68.492007
339.000000	66.605552
338.000000	64.625485
337.000000	62.515691
336.000000	60.443342
335.000000	58.231552
334.000000	56.030649
333.000000	53.371189
332.000000	50.852065
331.000000	48.173613
330.000000	45.372773
329.000000	42.639205
328.000000	39.744826
327.000000	36.911126
326.000000	34.049562
325.000000	31.216435
324.000000	28.386492
323.000000	25.608990
322.000000	22.898165
321.000000	20.246939
320.000000	17.749782
319.000000	15.419481
318.000000	13.203993
317.000000	11.176420
316.000000	9.379503
315.000000	7.741459
314.000000	6.305782
313.000000	5.051052
312.000000	3.986070
311.000000	3.072684
310.000000	2.341932
309.000000	1.725748
308.000000	1.257572
307.000000	0.892155
306.000000	0.620869
305.000000	0.416315
304.000000	0.278817
303.000000	0.174063
302.000000	0.107233
301.000000	0.060086
300.000000	0.032852
